,block_num,trial_id,ImgPath,onset,img_dur,trial_dur,end_time,response, ResponseTime
0,1,1,localizer_images/faces/21.jpg,5.000028583337553,0.30001245831954293,0.7500130833068397,5.750043458334403,0,
1,1,2,localizer_images/faces/21.jpg,5.750044874992454,0.30001475001336075,0.7500010833609849,6.50004729165812,1,0.30702791665680707
2,1,3,localizer_images/faces/29.jpg,6.500048624991905,0.3000141666561831,0.7500194583553821,7.250069833331509,0,
3,1,4,localizer_images/faces/4.jpg,7.250071166665293,0.30001499998616055,0.7500012916862033,8.000074125011452,1,0.6037644583266228
4,1,5,localizer_images/faces/36.jpg,8.000075333344284,0.3000028333044611,0.7500076249998529,8.750084916653577,0,
5,1,6,localizer_images/faces/20.jpg,8.75008674999117,0.3000188750156667,0.7500011250085663,9.500089583336376,1,0.738252208364429
6,1,7,localizer_images/faces/39.jpg,9.500090749992523,0.3000227083393838,0.7500164166558534,10.25010908333934,0,
7,1,8,localizer_images/faces/22.jpg,10.250110749999294,0.3000106666586362,0.7500095416617114,11.000123416655697,0,
8,1,9,localizer_images/faces/28.jpg,11.000124791666167,0.3000015833240468,0.7500010833318811,11.750127833336592,1,0.09236862498801202
9,1,10,localizer_images/faces/24.jpg,11.750130000000354,0.3000116666662507,0.7500111666449811,12.500142625009175,0,
10,1,11,localizer_images/faces/36.jpg,12.50014387498959,0.3000012499978766,0.7500014583638404,13.250147125014337,1,0.18525070836767554
11,1,12,localizer_images/faces/30.jpg,13.25014899999951,0.3000191249884665,0.7500199583591893,14.00017062498955,0,
12,1,13,localizer_images/faces/7.jpg,14.000172166648554,0.30000158335315064,0.7500031249946915,14.750178499991307,1,0.1282994166831486
13,1,14,localizer_images/faces/11.jpg,14.750179958355147,0.30001391665427946,0.7500108749954961,15.500192458333913,0,
14,1,15,localizer_images/faces/5.jpg,15.500193874991965,0.3000104583625216,0.7500174166634679,16.25021283334354,0,
15,1,16,localizer_images/faces/26.jpg,16.250213958352106,0.30002324999077246,0.7500111666449811,17.000226708332775,0,
16,1,17,localizer_images/faces/34.jpg,17.00022783334134,0.3000122083176393,0.7500176666653715,17.750246791663812,0,
17,1,18,localizer_images/faces/2.jpg,17.750248041644227,0.3000010000250768,0.7500011667143553,18.500251749996096,1,0.29181795835029334
18,1,19,localizer_images/faces/28.jpg,18.50025279165129,0.3000151250162162,0.7500149167026393,19.250268958334345,0,
19,1,20,localizer_images/faces/34.jpg,19.25026999998954,0.3000046666711569,0.7500100416655187,20.000281166663626,0,
20,2,1,localizer_images/houses/28.jpg,25.000027166650398,0.30000287501025014,0.7500023333413992,25.75003100000322,0,
21,2,2,localizer_images/houses/31.jpg,25.75003220833605,0.3000103750091512,0.7500157083268277,26.500049124995712,0,
22,2,3,localizer_images/houses/38.jpg,26.50005033335765,0.30000537500018254,0.7500034999975469,27.250055041658925,0,
23,2,4,localizer_images/houses/13.jpg,27.250056124990806,0.3000187500147149,0.7500015000114217,28.00005883333506,1,0.32557145835016854
24,2,5,localizer_images/houses/15.jpg,28.000060041667894,0.3000013749988284,0.7500020833394956,28.75006387499161,1,0.023796374996891245
25,2,6,localizer_images/houses/7.jpg,28.750065083353547,0.30000133329303935,0.7500014166580513,29.50006879164721,1,0.024243541643954813
26,2,7,localizer_images/houses/24.jpg,29.500070041656727,0.30000099999597296,0.7500017916900106,30.250073041650467,1,0.022254208335652947
27,2,8,localizer_images/houses/26.jpg,30.250074083334766,0.30000116667361,0.7500009166542441,31.00007829166134,1,0.022081208328017965
28,2,9,localizer_images/houses/14.jpg,31.00007933334564,0.30000116664450616,0.7500012916570995,31.750083916645963,1,0.025352500000735745
29,2,10,localizer_images/houses/28.jpg,31.75008504165453,0.30000099999597296,0.7500015833356883,32.50008837500354,1,0.02352962500299327
30,2,11,localizer_images/houses/24.jpg,32.50008937501116,0.30000120832119137,0.7500016666599549,33.250092791655334,1,0.02399524999782443
31,2,12,localizer_images/houses/28.jpg,33.250093874987215,0.30000116667361,0.7500016666599549,34.000098333344795,1,0.023463375022402033
32,2,13,localizer_images/houses/17.jpg,34.00010125001427,0.3000017083249986,0.7500017083366401,34.75010595834465,1,0.10946820833487436
33,2,14,localizer_images/houses/35.jpg,34.750109041662654,0.30001904169330373,0.7500030416704249,35.500113833346404,0,
34,2,15,localizer_images/houses/13.jpg,35.50011541665299,0.30001958334469236,0.7500129583349917,36.2501373749983,0,
35,2,16,localizer_images/houses/9.jpg,36.25013895833399,0.3000036666635424,0.7500050833332352,37.00014595835819,0,
36,2,17,localizer_images/houses/8.jpg,37.00014745834051,0.3000202083203476,0.7500013750104699,37.75015020833234,0,
37,2,18,localizer_images/houses/24.jpg,37.75015149998944,0.30001920834183693,0.7500106666702777,38.50016395834973,0,
38,2,19,localizer_images/houses/10.jpg,38.50016541665536,0.300007916695904,0.7500105416984297,39.25018579166499,0,
39,2,20,localizer_images/houses/23.jpg,39.25018687499687,0.30002058335230686,0.7500236666528508,40.000212250015466,0,
40,3,1,localizer_images/faces/11.jpg,45.0002582083398,0.3000197916699108,0.7500168333062902,45.75027679165942,0,
41,3,2,localizer_images/faces/25.jpg,45.75027841667179,0.30000295833451673,0.750018666672986,46.500307166657876,0,
42,3,3,localizer_images/faces/22.jpg,46.500308749993565,0.30001691667712294,0.7500053750118241,47.25033187499503,0,
43,3,4,localizer_images/faces/32.jpg,47.25033341665403,0.300010500010103,0.7500107083469629,48.00034600001527,0,
44,3,5,localizer_images/faces/5.jpg,48.00034766664612,0.3000035833683796,0.7500236250052694,48.7503730833414,0,
45,3,6,localizer_images/faces/29.jpg,48.750374666647986,0.30001691670622677,0.7500445833429694,49.500421166652814,0,
46,3,7,localizer_images/faces/23.jpg,49.50042283334187,0.30000537500018254,0.7500087500084192,50.25043320833356,0,
47,3,8,localizer_images/faces/15.jpg,50.250434416666394,0.3000176666828338,0.7500124166836031,51.000448750011856,0,
48,3,9,localizer_images/faces/8.jpg,51.00045012499322,0.30000425002072006,0.7500209583377,51.750472291663755,0,
49,3,10,localizer_images/faces/36.jpg,51.75047354164417,0.3000019167084247,0.7500317917147186,52.500506708340254,0,
50,3,11,localizer_images/faces/3.jpg,52.5005078749964,0.3000103750091512,0.7500237083586399,53.25053333333926,0,
51,3,12,localizer_images/faces/15.jpg,53.25054787500994,0.3000023333297577,0.7500177083420567,54.00056733333622,0,
52,3,13,localizer_images/faces/36.jpg,54.000568874995224,0.3000059583573602,0.7500032499956433,54.750574000005145,0,
53,3,14,localizer_images/faces/31.jpg,54.750575291662244,0.30002212498220615,0.7500195833272301,55.50059679165133,0,
54,3,15,localizer_images/faces/29.jpg,55.50059837498702,0.30002079167752527,0.750006583344657,56.25060658334405,0,
55,3,16,localizer_images/faces/3.jpg,56.25060779164778,0.30002191668609157,0.750023875007173,57.00063354166923,0,
56,3,17,localizer_images/faces/18.jpg,57.000635416654404,0.30002183333272114,0.7500144583464134,57.75065158333746,0,
57,3,18,localizer_images/faces/14.jpg,57.75065320834983,0.300003916665446,0.7500019166618586,58.50065691664349,0,
58,3,19,localizer_images/faces/11.jpg,58.5006582083588,0.30000799999106675,0.7500049166555982,59.25066479164525,0,
59,3,20,localizer_images/faces/28.jpg,59.25066629165667,0.3000115416944027,0.750004125002306,60.00067212499562,0,
60,4,1,localizer_images/houses/13.jpg,65.00006962500629,0.300017833331367,0.7500242916576099,65.75009575000149,0,
61,4,2,localizer_images/houses/18.jpg,65.75009725001291,0.3000248749740422,0.7500042916508391,66.50010312499944,0,
62,4,3,localizer_images/houses/27.jpg,66.50010445833323,0.3000129166757688,0.7500315000070259,67.25013779164874,0,
63,4,4,localizer_images/houses/23.jpg,67.25013962501544,0.30001191663905047,0.7500032499956433,68.00014470834867,0,
64,4,5,localizer_images/houses/5.jpg,68.00014633333194,0.30000387501786463,0.7500082916812971,68.75015624999651,0,
65,4,6,localizer_images/houses/26.jpg,68.75015804165741,0.3000087499967776,0.7500152916763909,69.50017508334713,0,
66,4,7,localizer_images/houses/29.jpg,69.50017662500613,0.30001624999567866,0.7500147916434798,70.25019329166389,0,
67,4,8,localizer_images/houses/29.jpg,70.25019491664716,0.3000185416894965,0.7500156250025611,71.00021233333973,0,
68,4,9,localizer_images/houses/39.jpg,71.0002137083502,0.3000052916468121,0.7500126250088215,71.75022829166846,0,
69,4,10,localizer_images/houses/38.jpg,71.75022979165078,0.30003208335256204,0.7500030833471101,72.5002349166607,0,
70,4,11,localizer_images/houses/39.jpg,72.50023645834881,0.30002108329790644,0.7500080416502897,73.25024587500957,0,
71,4,12,localizer_images/houses/2.jpg,73.25024704166572,0.3000086249958258,0.7500167083344422,74.00026554166107,0,
72,4,13,localizer_images/houses/1.jpg,74.00026712499675,0.30001487501431257,0.7500145833473653,74.75028366665356,0,
73,4,14,localizer_images/houses/23.jpg,74.75028529166593,0.30002191668609157,0.7500144166697282,75.50030145834899,0,
74,4,15,localizer_images/houses/25.jpg,75.50030283335946,0.3000166666461155,0.7500168333062902,76.25032145835576,0,
75,4,16,localizer_images/houses/38.jpg,76.25032304166234,0.3000307083420921,0.750018499995349,77.00034320834675,0,
76,4,17,localizer_images/houses/2.jpg,77.00034450000385,0.30000200000358745,0.7500138333416544,77.75036016665399,0,
77,4,18,localizer_images/houses/29.jpg,77.7503617083421,0.3000041249906644,0.7500210416619666,78.50038766665966,0,
78,4,19,localizer_images/houses/35.jpg,78.50038920834777,0.30002354164025746,0.7500053750118241,79.25039729164564,0,
79,4,20,localizer_images/houses/2.jpg,79.25039850000758,0.3000157916394528,0.7500030833471101,80.00040333333891,0,
80,5,1,localizer_images/faces/8.jpg,85.00002879166277,0.3000202083494514,0.7500031666713767,85.75003370834747,0,
81,5,2,localizer_images/faces/39.jpg,85.7500352083589,0.30001079163048416,0.7500010833027773,86.50003808335168,0,
82,5,3,localizer_images/faces/1.jpg,86.50003970833495,0.3000163749966305,0.75001454167068,87.25005604166654,0,
83,5,4,localizer_images/faces/21.jpg,87.25005750000128,0.30000116664450616,0.7500076249998529,88.00006741666584,0,
84,5,5,localizer_images/faces/2.jpg,88.00006887500058,0.300012958352454,0.7500120000040624,88.75008283334319,0,
85,5,6,localizer_images/faces/11.jpg,88.75008441664977,0.30000983335776255,0.7500020416919142,89.5000885000045,0,
86,5,7,localizer_images/faces/12.jpg,89.50009020834113,0.3000017083249986,0.7500234166509472,90.25011491664918,0,
87,5,8,localizer_images/faces/11.jpg,90.25011604165775,0.3000117083429359,0.7500364999868907,91.00015437501133,0,
88,5,9,localizer_images/faces/24.jpg,91.00015562499175,0.3000167916761711,0.7500165833625942,91.75017358333571,0,
89,5,10,localizer_images/faces/8.jpg,91.7501749166695,0.3000234999926761,0.7500023749889806,92.50017912499607,0,
90,5,11,localizer_images/faces/10.jpg,92.50018279167125,0.30000879167346284,0.7500131249835249,93.2502015416685,0,
91,5,12,localizer_images/faces/9.jpg,93.25020308335661,0.30001016665482894,0.750009291630704,94.00021399999969,0,
92,5,13,localizer_images/faces/38.jpg,94.00021520833252,0.3000061666825786,0.7500034583208617,94.75022049999097,0,
93,5,14,localizer_images/faces/3.jpg,94.75022208335577,0.3000194166379515,0.7500194582971744,95.500243208342,0,
94,5,15,localizer_images/faces/21.jpg,95.50024458335247,0.3000189166632481,0.7500052499817684,96.25025158334756,0,
95,5,16,localizer_images/faces/24.jpg,96.25025320833083,0.3000099583296105,0.7500107500236481,97.00026591666392,0,
96,5,17,localizer_images/faces/20.jpg,97.00026758335298,0.30001970831654035,0.7500149999978021,97.75028445833595,0,
97,5,18,localizer_images/faces/4.jpg,97.7502864166454,0.3000045416993089,0.7500188749982044,98.50030733333551,0,
98,5,19,localizer_images/faces/13.jpg,98.50030879167025,0.30000437499256805,0.7500094583374448,99.25031995834433,0,
99,5,20,localizer_images/faces/29.jpg,99.25032145835576,0.30001508331042714,0.7500154582958203,100.00033883334254,0,
100,6,1,localizer_images/houses/13.jpg,105.00002908334136,0.30001783330226317,0.7500224583200179,105.7500594999874,0,
101,6,2,localizer_images/houses/14.jpg,105.75006112499977,0.3000167083519045,0.7500128750107251,106.50007574999472,0,
102,6,3,localizer_images/houses/6.jpg,106.50007741665468,0.30002070835325867,0.7500178333430085,107.25009695833432,0,
103,6,4,localizer_images/houses/6.jpg,107.25009849999333,0.3000214166531805,0.7500055833661463,108.00010604166891,0,
104,6,5,localizer_images/houses/22.jpg,108.00010766665218,0.30001233334769495,0.7500192500010598,108.75012874999084,0,
105,6,6,localizer_images/houses/18.jpg,108.7501306666527,0.3000214166822843,0.7500138750183396,109.5001461666543,0,
106,6,7,localizer_images/houses/32.jpg,109.50014774998999,0.30000862502492964,0.7500045833585318,110.25015999999596,0,
107,6,8,localizer_images/houses/25.jpg,110.25016162500833,0.30002354164025746,0.7500223749957513,111.00018579166499,0,
108,6,9,localizer_images/houses/31.jpg,111.00018866665778,0.30001475001336075,0.7500017916900106,111.7501922500087,0,
109,6,10,localizer_images/houses/8.jpg,111.75019399999292,0.30000195835600607,0.7500123333593365,112.50020808333647,0,
110,6,11,localizer_images/houses/37.jpg,112.50020991664496,0.3000176250061486,0.7500240000081249,113.2502354583412,0,
111,6,12,localizer_images/houses/32.jpg,113.2502370000002,0.30000183335505426,0.7500182916701306,114.00025683335843,0,
112,6,13,localizer_images/houses/8.jpg,114.00025808333885,0.3000132916495204,0.7500185833196156,114.75027833334752,0,
113,6,14,localizer_images/houses/11.jpg,114.75027954165125,0.3000155833433382,0.7500034167023841,115.500284333335,0,
114,6,15,localizer_images/houses/15.jpg,115.50028566666879,0.3000118749914691,0.7500213749881368,116.25030808334122,0,
115,6,16,localizer_images/houses/3.jpg,116.250309166644,0.30000154170556925,0.7500126667146105,117.00032304166234,0,
116,6,17,localizer_images/houses/24.jpg,117.00032424999517,0.3000222916598432,0.7500210416619666,117.75034708334715,0,
117,6,18,localizer_images/houses/23.jpg,117.75034891665564,0.3000200417009182,0.7500181666982826,118.50036891666241,0,
118,6,19,localizer_images/houses/35.jpg,118.50037900000461,0.3000156249909196,0.7500195833272301,119.25040029166848,0,
119,6,20,localizer_images/houses/16.jpg,119.25040191665175,0.300008499994874,0.7500206250115298,120.0004242916475,0,
120,7,1,localizer_images/faces/5.jpg,125.00003100000322,0.3000224583374802,0.7500081250036601,125.75004083334352,0,
121,7,2,localizer_images/faces/33.jpg,125.75004233335494,0.3000191666360479,0.750004874978913,126.50004883334623,0,
122,7,3,localizer_images/faces/32.jpg,126.50005004164996,0.30001104169059545,0.7500105416984297,127.25006241665687,0,
123,7,4,localizer_images/faces/40.jpg,127.25006387499161,0.3000175000051968,0.7500837499974295,128.0001524166437,0,
124,7,5,localizer_images/faces/39.jpg,128.00015429165796,0.300022874987917,0.8358392916852608,128.83599662501365,0,
125,7,6,localizer_images/faces/11.jpg,128.83600204164395,0.3000164583500009,0.7500067916989792,129.58601266666665,0,
126,7,7,localizer_images/faces/13.jpg,129.58601400000043,0.3000074583396781,0.7500197500048671,130.33603562499047,0,
127,7,8,localizer_images/faces/17.jpg,130.33603720835526,0.3000223749841098,0.7500332083145622,131.08607220833073,0,
128,7,9,localizer_images/faces/19.jpg,131.08607420834596,0.30001379165332764,0.7500052083050832,131.83608845833805,0,
129,7,10,localizer_images/faces/18.jpg,131.83609020835138,0.3000075833115261,0.7500231666490436,132.58611529166228,0,
130,7,11,localizer_images/faces/19.jpg,132.58611674999702,0.30001783336047083,0.7500032083480619,133.33612204165547,0,
131,7,12,localizer_images/faces/33.jpg,133.3361237916688,0.3000190833408851,0.7500172916625161,134.0861429583456,0,
132,7,13,localizer_images/faces/29.jpg,134.08614454165217,0.30001466668909416,0.7500050416856539,134.83615129164536,0,
133,7,14,localizer_images/faces/28.jpg,134.83615266665583,0.3000177500071004,0.7500161666830536,135.58617066664738,0,
134,7,15,localizer_images/faces/15.jpg,135.5861721666588,0.3000179583323188,0.750012250005966,136.33618725000997,0,
135,7,16,localizer_images/faces/20.jpg,136.33618862499134,0.30001954166800715,0.7500215000181925,137.08621212499565,0,
136,7,17,localizer_images/faces/25.jpg,137.08621370833134,0.3000045000226237,0.7500057083379943,137.83622733334778,0,
137,7,18,localizer_images/faces/5.jpg,137.83622925000964,0.30002091664937325,0.7500204166572075,138.5862531666644,0,
138,7,19,localizer_images/faces/7.jpg,138.58625579165528,0.3000227083393838,0.7500079583551269,139.33626620835275,0,
139,7,20,localizer_images/faces/35.jpg,139.33626874999027,0.3000023750064429,0.7500224583491217,140.0862930000003,0,
140,8,1,localizer_images/houses/10.jpg,145.0000336666708,0.300012791674817,0.7500304583227262,145.7500659583311,0,
141,8,2,localizer_images/houses/36.jpg,145.75006762499106,0.3000085416715592,0.750009208364645,146.5000825416646,0,
142,8,3,localizer_images/houses/23.jpg,146.5000843333546,0.3000113333109766,0.750019416649593,147.2501055416651,0,
143,8,4,localizer_images/houses/27.jpg,147.25010720835417,0.3000147499842569,0.7500018749851733,148.0001110000012,0,
144,8,5,localizer_images/houses/34.jpg,148.00011250001262,0.30002183333272114,0.7500112083216663,148.7501254999952,0,
145,8,6,localizer_images/houses/9.jpg,148.75012691665324,0.3000215000065509,0.7500153750006575,149.50014424999245,0,
146,8,7,localizer_images/houses/2.jpg,149.50014587500482,0.3000199999951292,0.750005499983672,150.2501534583571,0,
147,8,8,localizer_images/houses/25.jpg,150.25015512498794,0.3000056666787714,0.7500048333604354,151.00016158333165,0,
148,8,9,localizer_images/houses/34.jpg,151.00016333334497,0.3000141666561831,0.750005333306035,151.7501710416691,0,
149,8,10,localizer_images/houses/33.jpg,151.75017270835815,0.3000108333071694,0.7500037082936615,152.5001782916661,0,
150,8,11,localizer_images/houses/12.jpg,152.50017991664936,0.3000096250034403,0.7500168750120793,153.25019858335145,0,
151,8,12,localizer_images/houses/26.jpg,153.25020004165708,0.300005916680675,0.7500139583426062,154.00021591666155,0,
152,8,13,localizer_images/houses/29.jpg,154.0002175833506,0.30001308329519816,0.7500159166520461,154.75023558334215,0,
153,8,14,localizer_images/houses/33.jpg,154.75023716664873,0.3000105416867882,0.7500154583540279,155.50025445834035,0,
154,8,15,localizer_images/houses/26.jpg,155.50025566664408,0.3000135417096317,0.7500035000266507,156.25026162501308,0,
155,8,16,localizer_images/houses/12.jpg,156.25026274999254,0.3000396666757297,0.7500057500146795,157.0002783749951,0,
156,8,17,localizer_images/houses/38.jpg,157.00028654164635,0.3000232083431911,0.7500189167039935,157.75030729165883,0,
157,8,18,localizer_images/houses/8.jpg,157.75030899999547,0.30000645836116746,0.750009333336493,158.50032041667146,0,
158,8,19,localizer_images/houses/34.jpg,158.5003218333586,0.3000157916394528,0.7500025832850952,159.2503262500104,0,
159,8,20,localizer_images/houses/21.jpg,159.2503275833442,0.3000192499894183,0.7500208750134334,160.0003502916661,0,
160,9,1,localizer_images/faces/25.jpg,165.00007800001185,0.3000029999820981,0.7500170416315086,165.75009708333528,0,
161,9,2,localizer_images/faces/16.jpg,165.7500991249981,0.30001570834429003,0.7500236666528508,166.50012474998948,0,
162,9,3,localizer_images/faces/16.jpg,166.50012620835332,0.3000212500046473,0.7500231250014622,167.2501511250157,0,
163,9,4,localizer_images/faces/28.jpg,167.25015274999896,0.3000108750129584,0.7500117500021588,168.0001660833368,0,
164,9,5,localizer_images/faces/3.jpg,168.0001676249958,0.30001154166529886,0.7500237916538026,168.75019333334058,0,
165,9,6,localizer_images/faces/36.jpg,168.75019487499958,0.3000020833569579,0.7500179999915417,169.50021479165298,0,
166,9,7,localizer_images/faces/4.jpg,169.5002160416625,0.300022583338432,0.750012083328329,170.250234166655,0,
167,9,8,localizer_images/faces/23.jpg,170.2502357083431,0.3000182083051186,0.7500198333000299,171.00025762501173,0,
168,9,9,localizer_images/faces/19.jpg,171.00025904166978,0.30002316666650586,0.7500105416693259,171.7502714166476,0,
169,9,10,localizer_images/faces/37.jpg,171.75027291665901,0.30000666668638587,0.7500013333337847,172.50027600000612,0,
170,9,11,localizer_images/faces/31.jpg,172.5002775833418,0.3000131250009872,0.7500169166596606,173.25029645834002,0,
171,9,12,localizer_images/faces/17.jpg,173.25029799999902,0.3000057083554566,0.7500130000116769,174.0003127916716,0,
172,9,13,localizer_images/faces/34.jpg,174.0003141250054,0.3000108333362732,0.7500224583491217,174.7503378750116,0,
173,9,14,localizer_images/faces/1.jpg,174.75033904166776,0.30001387497759424,0.7500080000027083,175.50034891665564,0,
174,9,15,localizer_images/faces/2.jpg,175.50035049999133,0.3000235000217799,0.7500230416771956,176.25037858335418,0,
175,9,16,localizer_images/faces/24.jpg,176.2503800833365,0.30000637500779703,0.7500053750118241,177.00038741665776,0,
176,9,17,localizer_images/faces/4.jpg,177.00038899999345,0.3000014999997802,0.7500131250126287,177.75040395834367,0,
177,9,18,localizer_images/faces/5.jpg,177.750405708357,0.3000218333036173,0.7500218749919441,178.5004292500089,0,
178,9,19,localizer_images/faces/33.jpg,178.50043083334458,0.3000200833193958,0.7500234166509472,179.2504566250136,0,
179,9,20,localizer_images/faces/26.jpg,179.25046070833923,0.30002433332265355,0.7500142499920912,180.00047670834465,0,
180,10,1,localizer_images/houses/38.jpg,185.0000488749938,0.3000121666700579,0.7500059166632127,185.75005649999366,0,
181,10,2,localizer_images/houses/11.jpg,185.75005800000508,0.3000044583459385,0.7500032916432247,186.50006325001596,0,
182,10,3,localizer_images/houses/11.jpg,186.5000649583526,0.3000030833063647,0.750021708314307,187.2500879583531,0,
183,10,4,localizer_images/houses/13.jpg,187.25008920833352,0.3000025833316613,0.7500147500250023,188.0001055833418,0,
184,10,5,localizer_images/houses/30.jpg,188.000106624997,0.30000775001826696,0.7500159583578352,188.75012425001478,0,
185,10,6,localizer_images/houses/14.jpg,188.75012591664563,0.3000223333656322,0.7500147083483171,189.50014604165335,0,
186,10,7,localizer_images/houses/7.jpg,189.50014762498904,0.3000049583497457,0.7500048750080168,190.25015383333084,0,
187,10,8,localizer_images/houses/1.jpg,190.250154999987,0.30002066667657346,0.7500032500247471,191.0001601249969,0,
188,10,9,localizer_images/houses/26.jpg,191.0001617083326,0.30000191667932086,0.7500120000040624,191.7501748749928,0,
189,10,10,localizer_images/houses/40.jpg,191.75017612500233,0.300022416660795,0.7500223749957513,192.50019991665613,0,
190,10,11,localizer_images/houses/12.jpg,192.500200999988,0.30000179167836905,0.7500178750196937,193.25022062499193,0,
191,10,12,localizer_images/houses/31.jpg,193.25022229165188,0.3000047917012125,0.7500060416932683,194.00023008335847,0,
192,10,13,localizer_images/houses/16.jpg,194.000231791666,0.3000108333362732,0.7500050416856539,194.7502387916611,0,
193,10,14,localizer_images/houses/31.jpg,194.75024020834826,0.30001866666134447,0.7500033749965951,195.50024545835913,0,
194,10,15,localizer_images/houses/8.jpg,195.50024691666476,0.30000674998154864,0.7500220416695811,196.25027054167003,0,
195,10,16,localizer_images/houses/26.jpg,196.2502716666495,0.30001804168568924,0.7500046250061132,197.00027808334562,0,
196,10,17,localizer_images/houses/23.jpg,197.000279708358,0.3000179999799002,0.7500018749851733,197.75028341665165,0,
197,10,18,localizer_images/houses/17.jpg,197.75028520834167,0.3000098333286587,0.7500138749892358,198.50030079166754,0,
198,10,19,localizer_images/houses/32.jpg,198.50030208335374,0.3000050416449085,0.7500181666400749,199.25032250001095,0,
199,10,20,localizer_images/houses/5.jpg,199.25032370834379,0.3000077083124779,0.7500242083042394,200.00034941665945,0,
200,11,1,localizer_images/faces/33.jpg,205.0000328333408,0.30001270832144655,0.7500331666669808,205.75006795834634,0,
201,11,2,localizer_images/faces/23.jpg,205.75006966665387,0.30000258336076513,0.7500169166887645,206.5000884583569,0,
202,11,3,localizer_images/faces/16.jpg,206.5000900416635,0.30000729169114493,0.7500239583314396,207.25011545835878,0,
203,11,4,localizer_images/faces/8.jpg,207.25011662501493,0.3000185416312888,0.7500115833245218,208.00013004164794,0,
204,11,5,localizer_images/faces/12.jpg,208.00013158333604,0.3000202499970328,0.7500212500162888,208.75015466666082,0,
205,11,6,localizer_images/faces/13.jpg,208.75015633334988,0.30002354164025746,0.7500185833196156,209.500180333358,0,
206,11,7,localizer_images/faces/23.jpg,209.50018199998885,0.30000679165823385,0.7500228749995586,210.250206958357,0,
207,11,8,localizer_images/faces/36.jpg,210.25020858334028,0.3000035416625906,0.750002291664714,211.00021258334164,0,
208,11,9,localizer_images/faces/27.jpg,211.000214208354,0.3000102083024103,0.7500132499844767,211.75022904164507,0,
209,11,10,localizer_images/faces/23.jpg,211.75023045833223,0.3000069583358709,0.750011791678844,212.50024387499434,0,
210,11,11,localizer_images/faces/33.jpg,212.50024512500386,0.3000116666662507,0.7500042500032578,213.25025116666802,0,
211,11,12,localizer_images/faces/11.jpg,213.2502527500037,0.30002412499743514,0.7500040833547246,214.00025812501553,0,
212,11,13,localizer_images/faces/19.jpg,214.000259249995,0.3000177916546818,0.7500030416704249,214.750264125003,0,
213,11,14,localizer_images/faces/12.jpg,214.75026533333585,0.3000177916546818,0.7500217916676775,215.50028879166348,0,
214,11,15,localizer_images/faces/17.jpg,215.50028995834873,0.3000212916522287,0.7500193332962226,216.25031058333116,0,
215,11,16,localizer_images/faces/1.jpg,216.25031166666304,0.3000168750004377,0.7500104583450593,217.0003239583457,0,
216,11,17,localizer_images/faces/2.jpg,217.00032541665132,0.3000137916824315,0.750020500010578,217.75034724999568,0,
217,11,18,localizer_images/faces/19.jpg,217.75034845835762,0.3000190833117813,0.7500202916562557,218.5003702083486,0,
218,11,19,localizer_images/faces/39.jpg,218.5003712916514,0.30000516670406796,0.7500060416932683,219.25037891665124,0,
219,11,20,localizer_images/faces/31.jpg,219.25037991665886,0.30000183335505426,0.7500174999877345,220.00039875000948,0,
220,12,1,localizer_images/houses/35.jpg,225.0000299999956,0.30001795836142264,0.7500082916521933,225.7500398750126,0,
221,12,2,localizer_images/houses/11.jpg,225.7500411666697,0.30001037498004735,0.7500183749943972,226.5000607916445,0,
222,12,3,localizer_images/houses/37.jpg,226.50006187500549,0.3000119583448395,0.7500202083319891,227.250083791645,0,
223,12,4,localizer_images/houses/10.jpg,227.25008504165453,0.3000235416984651,0.7500100833422039,228.00009654165478,0,
224,12,5,localizer_images/houses/13.jpg,228.00009762501577,0.3000159166404046,0.7500165833334904,228.7501156250073,0,
225,12,6,localizer_images/houses/33.jpg,228.7501167083392,0.30002049999893643,0.7500140416668728,229.50013208333985,0,
226,12,7,localizer_images/houses/34.jpg,229.50013312499505,0.3000165833509527,0.7500163333606906,230.25015066665947,0,
227,12,8,localizer_images/houses/12.jpg,230.25015179166803,0.30002391667221673,0.7500028333452065,231.00015608334797,0,
228,12,9,localizer_images/houses/16.jpg,231.00015720835654,0.30001995828934014,0.7500193332962226,231.7501779999875,0,
229,12,10,localizer_images/houses/25.jpg,231.7501792916446,0.30001025000819936,0.7500210833677556,232.50020170834614,0,
230,12,11,localizer_images/houses/14.jpg,232.5002028333547,0.3000154583132826,0.7500104583159555,233.25021466665203,0,
231,12,12,localizer_images/houses/26.jpg,233.250215750013,0.30000587497488596,0.7500129583349917,234.00023008335847,0,
232,12,13,localizer_images/houses/13.jpg,234.00023112501367,0.30000949997338466,0.7500022083404474,234.75023458333453,0,
233,12,14,localizer_images/houses/1.jpg,234.7502356666664,0.3000240833207499,0.750018208345864,235.5002628749935,0,
234,12,15,localizer_images/houses/6.jpg,235.50026462500682,0.30000933332485147,0.7500224999967031,236.25028895834112,0,
235,12,16,localizer_images/houses/19.jpg,236.25029050000012,0.3000106250110548,0.750006874994142,237.00029945833376,0,
236,12,17,localizer_images/houses/19.jpg,237.00030120834708,0.3000098332995549,0.7500151666463353,237.75034595833858,0,
237,12,18,localizer_images/houses/11.jpg,237.75034958333708,0.3000040416663978,0.7500079166784417,238.50035933335312,0,
238,12,19,localizer_images/houses/18.jpg,238.50036054165685,0.30001345835626125,0.7500075833522715,239.25036987499334,0,
239,12,20,localizer_images/houses/30.jpg,239.2503712916514,0.30000883335014805,0.7502909583563451,240.00066358334152,0,
