,block_num,trial_id,ImgPath,onset,img_dur,trial_dur,end_time,response, ResponseTime
0,1,1,localizer_images/houses/8.jpg,15.000022958993213,0.3000086249958258,0.7500184579985216,15.750043374995585,0,
1,1,2,localizer_images/houses/20.jpg,15.750045166991185,0.30003320799733046,0.7500079580058809,16.50005487499584,0,
2,1,3,localizer_images/houses/38.jpg,16.500056624994613,0.300008334001177,0.7500115839939099,17.25006995900185,0,
3,1,4,localizer_images/houses/4.jpg,17.250071666989243,0.30001995801285375,0.7500245420087595,18.00009787498857,0,
4,1,5,localizer_images/houses/31.jpg,18.000099583994597,0.30002970799978357,0.7500281249958789,18.750129874999402,0,
5,1,6,localizer_images/houses/29.jpg,18.750132249988383,0.30002770900318865,0.7500333750067512,19.500167374993907,0,
6,1,7,localizer_images/houses/5.jpg,19.500169083999936,0.30002654099371284,0.7500264580012299,20.25019724998856,0,
7,1,8,localizer_images/houses/19.jpg,20.250199041998712,0.3000376249983674,0.7500291250034934,21.000229708995903,0,
8,1,9,localizer_images/houses/4.jpg,21.000231333993725,0.300009291007882,0.7500255000049947,21.7502590840013,0,
9,1,10,localizer_images/houses/30.jpg,21.750260834000073,0.30001279099087697,0.7500062499893829,22.500269791999017,0,
10,1,11,localizer_images/houses/20.jpg,22.50027154199779,0.30001012499269564,0.7500060000020312,23.25027908399352,0,
11,1,12,localizer_images/houses/30.jpg,23.250280791995465,0.300018458001432,0.7502292080025654,24.000511583988555,0,
12,1,13,localizer_images/houses/1.jpg,24.0005132919905,0.3000332920055371,0.7500157920003403,24.750530833989615,0,
13,1,14,localizer_images/houses/29.jpg,24.750532583988388,0.3000331250077579,0.7500106250081444,25.50054491699848,0,
14,1,15,localizer_images/houses/20.jpg,25.500546583993128,0.3000246660085395,0.7500043330073822,26.25055270899611,0,
15,1,16,localizer_images/houses/12.jpg,26.250554416998057,0.30002300000342075,0.7501427919924026,27.00069883398828,0,
16,1,17,localizer_images/houses/4.jpg,27.0007004999934,0.30003220900835004,0.750035167002352,27.75073749999865,0,
17,1,18,localizer_images/houses/25.jpg,27.750739249997423,0.3000143340032082,0.750014208999346,28.500755208995542,0,
18,1,19,localizer_images/houses/16.jpg,28.500757000001613,0.30000954199931584,0.7500113339920063,29.25077012499969,0,
19,1,20,localizer_images/houses/40.jpg,29.250771874998463,0.30003370899066795,0.7500309169990942,30.000804958996014,0,
20,2,1,localizer_images/faces/5.jpg,45.000026666995836,0.3000182919931831,0.7500124579964904,45.75004079200153,0,
21,2,2,localizer_images/faces/19.jpg,45.75004491698928,0.30001983301190194,0.7500295000063488,46.50007650000043,0,
22,2,3,localizer_images/faces/12.jpg,46.50007820899191,0.30004120800003875,0.7500161250063684,47.25010429199028,0,
23,2,4,localizer_images/faces/34.jpg,47.25012254199828,0.3000195420027012,0.7500184169912245,48.00014245900093,0,
24,2,5,localizer_images/faces/30.jpg,48.00014416698832,0.3000343750027241,0.750026625013561,48.7501724169997,0,
25,2,6,localizer_images/faces/10.jpg,48.75017412500165,0.30002966699248645,0.7500035419943742,49.500179291993845,0,
26,2,7,localizer_images/faces/6.jpg,49.50018099999579,0.3000153339962708,0.7500090419925982,50.250191792001715,0,
27,2,8,localizer_images/faces/15.jpg,50.25019349998911,0.3000406670034863,0.7501413749996573,51.00033637500019,0,
28,2,9,localizer_images/faces/24.jpg,51.000338083991664,0.30003854099777527,0.7500255830091191,51.750365291998605,0,
29,2,10,localizer_images/faces/7.jpg,51.750367083994206,0.30002841600799,0.7500070410023909,52.50037574999442,0,
30,2,11,localizer_images/faces/18.jpg,52.50037745900045,0.3000420829921495,0.7500291249889415,53.25040820900176,0,
31,2,12,localizer_images/faces/24.jpg,53.250409916989156,0.3000297920079902,0.7500378750119125,54.00044937500206,0,
32,2,13,localizer_images/faces/22.jpg,54.00045108399354,0.30002483300631866,0.7500166249956237,54.7504703339946,0,
33,2,14,localizer_images/faces/12.jpg,54.75047199999972,0.3000194170017494,0.750010833988199,55.50048420899839,0,
34,2,15,localizer_images/faces/33.jpg,55.50048591700033,0.3000455829896964,0.7500161669886438,56.25050370900135,0,
35,2,16,localizer_images/faces/14.jpg,56.250505416988744,0.3000204580021091,0.7501245000021299,57.000631541988696,0,
36,2,17,localizer_images/faces/39.jpg,57.00063316700107,0.3000279580010101,0.7500303329870803,57.75066566700116,0,
37,2,18,localizer_images/faces/5.jpg,57.75066799999331,0.3000097500043921,0.7500268340081675,58.50069699999585,0,
38,2,19,localizer_images/faces/28.jpg,58.500698624993674,0.30000658400240354,0.7500102089979919,59.250710958993295,0,
39,2,20,localizer_images/faces/16.jpg,59.250713542001904,0.30003624998789746,0.7500194999884116,60.00073462499131,0,
40,3,1,localizer_images/houses/30.jpg,75.00002875000064,0.3000353339884896,0.7500202090013772,75.75005137499829,0,
41,3,2,localizer_images/houses/40.jpg,75.75005354199675,0.3000172920001205,0.7500460830051452,76.50012629199773,0,
42,3,3,localizer_images/houses/14.jpg,76.50012825000158,0.3000385419873055,0.7500164999946719,77.2501559999946,0,
43,3,4,localizer_images/houses/5.jpg,77.25015774999338,0.30003470899828244,0.7500272920005955,78.0001866669918,0,
44,3,5,localizer_images/houses/30.jpg,78.00018841699057,0.3000366250053048,0.7500430420041084,78.75023295899155,0,
45,3,6,localizer_images/houses/12.jpg,78.75023525000142,0.30004941699735355,0.7500382919970434,79.50028349999047,0,
46,3,7,localizer_images/houses/23.jpg,79.50028524998925,0.30002075000084005,0.7500395420065615,80.25033224999788,0,
47,3,8,localizer_images/houses/9.jpg,80.2503338749957,0.30004504199314397,0.7500136250018841,81.00034904199129,0,
48,3,9,localizer_images/houses/37.jpg,81.00035074999323,0.3000256670056842,0.7500361249985872,81.7503893749963,0,
49,3,10,localizer_images/houses/37.jpg,81.75039229200047,0.3000252919882769,0.7500023329921532,82.50039674999425,1,0.6295684579963563
50,3,11,localizer_images/houses/32.jpg,82.50039854198985,0.300045666997903,0.7500079169985838,83.25040829199133,0,
51,3,12,localizer_images/houses/15.jpg,83.25040983399958,0.3000305000023218,0.7500369579938706,84.0004484589881,0,
52,3,13,localizer_images/houses/16.jpg,84.00045016699005,0.30002750000858214,0.75003550000838,84.75048720899213,0,
53,3,14,localizer_images/houses/35.jpg,84.75048891699407,0.3000292500073556,0.7500263749971054,85.50051762499788,0,
54,3,15,localizer_images/houses/19.jpg,85.50052000000142,0.3000222499977099,0.7500368339970009,86.25055833399529,0,
55,3,16,localizer_images/houses/23.jpg,86.25056016699818,0.3000186669960385,0.7500198329944396,87.00058195900056,0,
56,3,17,localizer_images/houses/5.jpg,87.00058366698795,0.3000308330083499,0.7500463330070488,87.75063208398933,0,
57,3,18,localizer_images/houses/35.jpg,87.75063366699032,0.3000197920046048,0.7500070000096457,88.50064216699684,0,
58,3,19,localizer_images/houses/2.jpg,88.50064383399149,0.3000282499997411,0.7500420410069637,89.25068762499723,0,
59,3,20,localizer_images/houses/36.jpg,89.250689374996,0.3000489169935463,0.7500347089953721,90.00073441700079,0,
60,4,1,localizer_images/faces/35.jpg,105.0000242919923,0.3000193330080947,0.7500137500028359,105.75004008399264,0,
61,4,2,localizer_images/faces/17.jpg,105.75004199999967,0.3000527499971213,0.7500063749903347,106.50004999998782,0,
62,4,3,localizer_images/faces/35.jpg,106.50005170899385,0.3000434999994468,0.7500126249942696,107.25006587499229,0,
63,4,4,localizer_images/faces/14.jpg,107.25006787499296,0.3000503750081407,0.7500332920026267,108.00010283399024,0,
64,4,5,localizer_images/faces/14.jpg,108.00010449999536,0.3000294999947073,0.750021875006496,108.75012787499873,0,
65,4,6,localizer_images/faces/14.jpg,108.7501302499877,0.30002058400714304,0.7500019170111045,109.50013412498811,1,0.5616661670064786
66,4,7,localizer_images/faces/8.jpg,109.50013599998783,0.3000370420049876,0.750046334011131,110.25018391699996,0,
67,4,8,localizer_images/faces/1.jpg,110.25019391698879,0.30002370801230427,0.7500297920050798,111.00022529199487,0,
68,4,9,localizer_images/faces/30.jpg,111.00022708399047,0.3000189160084119,0.7500259579974227,111.75025479200121,0,
69,4,10,localizer_images/faces/24.jpg,111.75025662498956,0.3000268750038231,0.7500501250033267,112.50030845899892,0,
70,4,11,localizer_images/faces/29.jpg,112.50031016700086,0.3000316669931635,0.7500320419931086,113.25034379199496,0,
71,4,12,localizer_images/faces/10.jpg,113.25034549999691,0.300014916996588,0.7500279590021819,114.00037508399691,0,
72,4,13,localizer_images/faces/36.jpg,114.00037675000203,0.30002716698800214,0.7500051669921959,114.7503834169911,0,
73,4,14,localizer_images/faces/40.jpg,114.75038620899431,0.3000473749998491,0.7500525409996044,115.50044041698857,0,
74,4,15,localizer_images/faces/19.jpg,115.50044216700189,0.3000211249891436,0.7500363749859389,116.25048070900084,0,
75,4,16,localizer_images/faces/15.jpg,116.25048295898887,0.300004083008389,0.7502926660090452,117.00077733398939,0,
76,4,17,localizer_images/faces/19.jpg,117.00077887499356,0.3000521670037415,0.7500133340072352,117.75082179199671,0,
77,4,18,localizer_images/faces/27.jpg,117.75082370899327,0.30000204099633265,0.7500171660067281,118.50084358399909,0,
78,4,19,localizer_images/faces/19.jpg,118.5008563750016,0.3000341249862686,0.7500052919931477,119.25087179199909,0,
79,4,20,localizer_images/faces/3.jpg,119.25087420899945,0.30000483299954794,0.7500279999949271,120.00090400000045,0,
80,5,1,localizer_images/houses/33.jpg,135.00002254199353,0.3000180829985766,0.7500555419974262,135.75008033399354,0,
81,5,2,localizer_images/houses/2.jpg,135.75008204199548,0.3000273749930784,0.7500330000038957,136.50011708399688,0,
82,5,3,localizer_images/houses/21.jpg,136.50011879199883,0.3000424999918323,0.7500086249929154,137.25012949999655,0,
83,5,4,localizer_images/houses/6.jpg,137.25013124999532,0.3000379589939257,0.7500057089928305,138.00013854198914,0,
84,5,5,localizer_images/houses/34.jpg,138.00014012499014,0.3000295840029139,0.7500520000030519,138.75019366700144,0,
85,5,6,localizer_images/houses/3.jpg,138.75019537498883,0.30001316701236647,0.7500054590054788,139.50020524999127,0,
86,5,7,localizer_images/houses/35.jpg,139.5002069589973,0.30003533299895935,0.7500370829948224,140.2502456249931,0,
87,5,8,localizer_images/houses/30.jpg,140.25024733399914,0.3000353749957867,0.7500027909991331,141.00025179199292,0,
88,5,9,localizer_images/houses/7.jpg,141.0002535419917,0.300036792003084,0.7500470000086352,141.75030258399784,0,
89,5,10,localizer_images/houses/3.jpg,141.75030416699883,0.30000720800308045,0.7500473330001114,142.50036133399408,0,
90,5,11,localizer_images/houses/5.jpg,142.50037133399746,0.3000084160012193,0.7500092909904197,143.25038216699613,0,
91,5,12,localizer_images/houses/36.jpg,143.25039266698877,0.3000371670059394,0.750028750000638,144.0004230839986,0,
92,5,13,localizer_images/houses/33.jpg,144.00042479200056,0.3000402499892516,0.7500257919891737,144.75045274999866,0,
93,5,14,localizer_images/houses/6.jpg,144.7504544169933,0.30004650000773836,0.7500434170069639,145.50051050000184,0,
94,5,15,localizer_images/houses/3.jpg,145.5005204170011,0.3000439999887021,0.7500046249915613,146.2505267499946,0,
95,5,16,localizer_images/houses/40.jpg,146.2505285840016,0.3000122499943245,0.7500177909969352,147.00054795898905,0,
96,5,17,localizer_images/houses/10.jpg,147.00054954199004,0.3000309580093017,0.7500557080056751,147.7506068340008,0,
97,5,18,localizer_images/houses/30.jpg,147.7506087919901,0.3000508330005687,0.7500504580093548,148.50066133399378,0,
98,5,19,localizer_images/houses/33.jpg,148.50066349998815,0.30002975001116283,0.7500584170047659,149.25074070900155,0,
99,5,20,localizer_images/houses/31.jpg,149.25074645900168,0.3000402909965487,0.7501654579973547,150.0009134169959,0,
100,6,1,localizer_images/faces/14.jpg,165.00002649999806,0.3000438339950051,0.7500435839901911,165.75007287500193,0,
101,6,2,localizer_images/faces/23.jpg,165.75007470899436,0.30005637499562,0.7500568749965169,166.50014179199934,0,
102,6,3,localizer_images/faces/1.jpg,166.50015045898908,0.3000286250025965,0.7500608330010436,167.25021295899933,0,
103,6,4,localizer_images/faces/9.jpg,167.25021474999085,0.30003345900331624,0.7500582500069868,168.00027479199343,0,
104,6,5,localizer_images/faces/31.jpg,168.00027649999538,0.30004408399690874,0.75006345899601,168.75034283399873,0,
105,6,6,localizer_images/faces/3.jpg,168.7503447499912,0.3000632089970168,0.7500334590004059,169.50037999999768,0,
106,6,7,localizer_images/faces/4.jpg,169.50038166699233,0.3000502500071889,0.7500469170045108,170.25043137499597,0,
107,6,8,localizer_images/faces/28.jpg,170.25043304199062,0.30000504200870637,0.7500212500017369,171.00045595900156,0,
108,6,9,localizer_images/faces/34.jpg,171.00045766698895,0.3000566670089029,0.7500600000057602,171.7505194589903,0,
109,6,10,localizer_images/faces/4.jpg,171.75052124999638,0.30005220900056884,0.7500185840035556,172.50054137498955,0,
110,6,11,localizer_images/faces/9.jpg,172.50054304199875,0.3000475829903735,0.7500052919931477,173.2505499169929,0,
111,6,12,localizer_images/faces/10.jpg,173.25055154199072,0.30003700000816025,0.7500353330106009,174.00058849999914,0,
112,6,13,localizer_images/faces/22.jpg,174.0005902499979,0.30005245900247246,0.750056584001868,174.75064899999416,0,
113,6,14,localizer_images/faces/13.jpg,174.75065074999293,0.3000133339955937,0.7500220420042751,175.50067504199978,0,
114,6,15,localizer_images/faces/36.jpg,175.50067670899443,0.30003229099384043,0.7500074160052463,176.25068679200194,0,
115,6,16,localizer_images/faces/17.jpg,176.25068854200072,0.300009874990792,0.7502765419922071,177.00096679199487,0,
116,6,17,localizer_images/faces/27.jpg,177.0009684169927,0.30002608300128486,0.750037624995457,177.7510135420016,0,
117,6,18,localizer_images/faces/13.jpg,177.75101591699058,0.3000478750036564,0.7500505000061821,178.50106791699363,0,
118,6,19,localizer_images/faces/5.jpg,178.50107020899304,0.30004666600143537,0.7500508329976583,179.25113145899377,0,
119,6,20,localizer_images/faces/37.jpg,179.25114583400136,0.3000500829948578,0.7500536659936188,180.00120116698963,0,
120,7,1,localizer_images/houses/3.jpg,195.00002491699706,0.3000601249950705,0.7500670830049785,195.75009487499483,0,
121,7,2,localizer_images/houses/36.jpg,195.7500973749993,0.30002029199386016,0.7500594589946559,196.50018712499877,0,
122,7,3,localizer_images/houses/36.jpg,196.50018883399025,0.3000043330102926,0.7500055410055211,197.25019604199042,0,
123,7,4,localizer_images/houses/12.jpg,197.25019770899962,0.30005466598959174,0.750116415991215,198.0003157089959,0,
124,7,5,localizer_images/houses/35.jpg,198.0003174589947,0.3000060000049416,0.7500379580014851,198.75035716699495,0,
125,7,6,localizer_images/houses/12.jpg,198.75035899999784,0.30003329199098516,0.750058416990214,199.50042016699445,0,
126,7,7,localizer_images/houses/7.jpg,199.50042179199227,0.3000554580066819,0.750032416995964,200.25045637499716,0,
127,7,8,localizer_images/houses/17.jpg,200.2504580419918,0.30002258300373796,0.750061166996602,201.0005207919894,0,
128,7,9,localizer_images/houses/6.jpg,201.00052254198818,0.3000096250034403,0.7500453750108136,201.7505707090022,0,
129,7,10,localizer_images/houses/13.jpg,201.75057249999372,0.30002129200147465,0.750020499996026,202.50059508399863,0,
130,7,11,localizer_images/houses/4.jpg,202.50059679200058,0.30001995799830183,0.7500313749915222,203.2506379589904,0,
131,7,12,localizer_images/houses/15.jpg,203.25063966699236,0.30002762500953395,0.7500105000071926,204.00065179199737,0,
132,7,13,localizer_images/houses/11.jpg,204.00065354199614,0.30004354199627414,0.750051541996072,204.75070720899384,0,
133,7,14,localizer_images/houses/20.jpg,204.75070887499896,0.3000181249954039,0.7500405419996241,205.5007512089942,0,
134,7,15,localizer_images/houses/9.jpg,205.5007528749993,0.30001112500031013,0.7500338339887094,206.25078837499314,0,
135,7,16,localizer_images/houses/6.jpg,206.2507899589982,0.3000014999997802,0.7500016249978216,207.00079345899576,1,0.23345983299077488
136,7,17,localizer_images/houses/6.jpg,207.00079549998918,0.3000657500087982,0.7500012500095181,207.75080958400213,1,0.598278167002718
137,7,18,localizer_images/houses/27.jpg,207.75081162499555,0.30004162499972153,0.7500036249984987,208.50081708400103,0,
138,7,19,localizer_images/houses/5.jpg,208.50081887499255,0.3000297090038657,0.7500698750081938,209.25089920900064,0,
139,7,20,localizer_images/houses/19.jpg,209.25090091698803,0.3000241670088144,0.7501112500031013,210.00101379198895,0,
140,8,1,localizer_images/faces/36.jpg,225.00002362499072,0.3000544170063222,0.7500567920069443,225.75008220899326,0,
141,8,2,localizer_images/faces/11.jpg,225.7500839169952,0.30001375000574626,0.7500459580041934,226.50013266698807,0,
142,8,3,localizer_images/faces/11.jpg,226.50013545899128,0.3000694160000421,0.7500013329990907,227.25013883398788,1,0.49755800000275485
143,8,4,localizer_images/faces/19.jpg,227.25014116699458,0.30000245799601544,0.7501210829941556,228.0002640419989,0,
144,8,5,localizer_images/faces/34.jpg,228.0002656669967,0.3000417919975007,0.7500626669934718,228.750329958988,0,
145,8,6,localizer_images/faces/36.jpg,228.75033170900133,0.30005454098863993,0.7500712079927325,229.50040499999886,0,
146,8,7,localizer_images/faces/6.jpg,229.5004066669935,0.30002708299434744,0.7500210830039578,230.25042995899275,0,
147,8,8,localizer_images/faces/6.jpg,230.25043170899153,0.3000163749966305,0.7500018749997253,231.00043508398812,1,0.44494470799691044
148,8,9,localizer_images/faces/14.jpg,231.00043691699102,0.30000508300145157,0.7500098750024335,231.75044841699128,0,
149,8,10,localizer_images/faces/7.jpg,231.750450291991,0.3000128749990836,0.7500618750054855,232.5005217500002,0,
150,8,11,localizer_images/faces/37.jpg,232.50053170899628,0.3000354999967385,0.7500069999950938,233.25054850000015,0,
151,8,12,localizer_images/faces/9.jpg,233.25055008399067,0.30003725001006387,0.7500407500047004,234.00059233399224,0,
152,8,13,localizer_images/faces/35.jpg,234.00059399999736,0.30001245900348295,0.7500629169953754,234.75065970899595,0,
153,8,14,localizer_images/faces/31.jpg,234.75066150000202,0.3000343749881722,0.7500523339986103,235.50071554198803,0,
154,8,15,localizer_images/faces/33.jpg,235.50071712498902,0.3000387089996366,0.7500086250074673,236.25073549999797,0,
155,8,16,localizer_images/faces/10.jpg,236.25073720898945,0.30004245800955687,0.7500545830116607,237.00079345899576,0,
156,8,17,localizer_images/faces/16.jpg,237.00079525000183,0.3000242919952143,0.7500224169925787,237.75081995899382,0,
157,8,18,localizer_images/faces/25.jpg,237.75082233399735,0.30007216599187814,0.7500208749988815,238.50084675000107,0,
158,8,19,localizer_images/faces/23.jpg,238.50084941698879,0.3000339999998687,0.75003550000838,239.2508879169909,0,
159,8,20,localizer_images/faces/16.jpg,239.25089033399126,0.30002879101084545,0.7502620830055093,240.00115408399142,0,
160,9,1,localizer_images/houses/22.jpg,255.00003333399945,0.30005591599910986,0.7500762080017012,255.75011149999045,0,
161,9,2,localizer_images/houses/33.jpg,255.75011762499344,0.3000519589986652,0.7500196250039153,256.5001393339917,0,
162,9,3,localizer_images/houses/3.jpg,256.5001409999968,0.3000037500023609,0.7500676670024404,257.2502103339939,0,
163,9,4,localizer_images/houses/1.jpg,257.250211999999,0.3000659589888528,0.7502298749895999,258.0004434589937,0,
164,9,5,localizer_images/houses/1.jpg,258.0004451249988,0.30002166698977817,0.7500018749997253,258.7504590419994,1,0.5491773339890642
165,9,6,localizer_images/houses/20.jpg,258.7504610420001,0.30000729199673515,0.7500181249924935,259.50048595899716,0,
166,9,7,localizer_images/houses/15.jpg,259.50049591698917,0.30001387500669807,0.7500189170095837,260.2505305839877,0,
167,9,8,localizer_images/houses/12.jpg,260.2505322090001,0.3000763749878388,0.7500142909993883,261.0005481669941,0,
168,9,9,localizer_images/houses/5.jpg,261.0005499589897,0.3000577500060899,0.7500655000039842,261.7506174589944,0,
169,9,10,localizer_images/houses/8.jpg,261.75061966700014,0.3000489169935463,0.75006974999269,262.5006984999927,0,
170,9,11,localizer_images/houses/4.jpg,262.5007002919883,0.3000017920130631,0.7500336250086548,263.2507354589907,0,
171,9,12,localizer_images/houses/5.jpg,263.2507371249958,0.3000427920051152,0.7500545420043636,264.00079370899766,0,
172,9,13,localizer_images/houses/37.jpg,264.0007954999892,0.3000220420071855,0.7500022090098355,264.75080341698776,0,
173,9,14,localizer_images/houses/39.jpg,264.75080508399697,0.30006666599365417,0.7500192500010598,265.5008264999924,0,
174,9,15,localizer_images/houses/31.jpg,265.5008287919918,0.3000591669988353,0.7500785419979366,266.2509090839885,0,
175,9,16,localizer_images/houses/26.jpg,266.25091083400184,0.30000745799043216,0.7500423329911428,267.00095508398954,0,
176,9,17,localizer_images/houses/15.jpg,267.0009567919915,0.3000108749984065,0.7500247499992838,267.75098470899684,0,
177,9,18,localizer_images/houses/38.jpg,267.75098716698994,0.300011875006021,0.7500469580118079,268.5010356249986,0,
178,9,19,localizer_images/houses/13.jpg,268.5010378750012,0.30005120899295434,0.750076166994404,269.2511169169884,0,
179,9,20,localizer_images/houses/14.jpg,269.2511192499951,0.3000052499992307,0.750209542005905,270.001330375002,0,
180,10,1,localizer_images/faces/15.jpg,285.0000232089951,0.30006875000253785,0.7500754579959903,285.75010137500067,0,
181,10,2,localizer_images/faces/35.jpg,285.75010308399214,0.3000550410069991,0.7500751659972593,286.50018041698786,0,
182,10,3,localizer_images/faces/23.jpg,286.50018208399706,0.300043082999764,0.7500819999986561,287.2502674999996,0,
183,10,4,localizer_images/faces/37.jpg,287.25026916699426,0.30005237499426585,0.7502355000033276,288.00050633399223,0,
184,10,5,localizer_images/faces/28.jpg,288.000508083991,0.3000758330017561,0.7500027080095606,288.75051249998796,0,
185,10,6,localizer_images/faces/22.jpg,288.750514208994,0.3000515000021551,0.750077250006143,289.5005931670021,0,
186,10,7,localizer_images/faces/9.jpg,289.5005947919999,0.3000159579969477,0.7500638329947833,290.25067424999725,0,
187,10,8,localizer_images/faces/40.jpg,290.25067587499507,0.30001091699523386,0.7500512499973411,291.00072908400034,0,
188,10,9,localizer_images/faces/26.jpg,291.0007307499909,0.30003091700200457,0.7500204170064535,291.7507539169892,0,
189,10,10,localizer_images/faces/14.jpg,291.75075587499305,0.3000710420019459,0.7500695420021657,292.50082687499525,0,
190,10,11,localizer_images/faces/28.jpg,292.5008285419899,0.3000703750003595,0.7500828750053188,293.2509141670016,0,
191,10,12,localizer_images/faces/7.jpg,293.25091583399626,0.30000983299396466,0.7500843750021886,294.00100174998806,0,
192,10,13,localizer_images/faces/1.jpg,294.00100341699726,0.30008108299807645,0.7500818330008769,294.7510866669909,0,
193,10,14,localizer_images/faces/28.jpg,294.7510882919887,0.30006204200617503,0.7500062080071075,295.5010959999927,0,
194,10,15,localizer_images/faces/15.jpg,295.5010978749924,0.30007237500103656,0.7500776250089984,296.2511770419951,0,
195,10,16,localizer_images/faces/19.jpg,296.25117895899166,0.3000821250025183,0.7500037499994505,297.0011843749962,0,
196,10,17,localizer_images/faces/15.jpg,297.0011860419909,0.30004591699980665,0.7500110420078272,297.7511986669997,0,
197,10,18,localizer_images/faces/3.jpg,297.7512005419994,0.3000233329948969,0.7500253329926636,298.50122745899716,0,
198,10,19,localizer_images/faces/37.jpg,298.50122920899594,0.3000268329924438,0.7500510410027346,299.2512823750003,0,
199,10,20,localizer_images/faces/21.jpg,299.25128658399626,0.30000595799356233,0.7501900409988593,300.00147849999485,0,
200,11,1,localizer_images/houses/23.jpg,315.00002645899076,0.30004512499726843,0.7500688750005793,315.7500971249974,0,
201,11,2,localizer_images/houses/26.jpg,315.7501027499966,0.3000175839988515,0.7500059589947341,316.50011033398914,0,
202,11,3,localizer_images/houses/12.jpg,316.50011199999426,0.300044584000716,0.7500253339967458,317.2501388749952,0,
203,11,4,localizer_images/houses/24.jpg,317.25014108399046,0.3000308330083499,0.7500112499983516,318.000153874993,0,
204,11,5,localizer_images/houses/37.jpg,318.000155583999,0.3000282499997411,0.7500122909987113,318.7501699169952,0,
205,11,6,localizer_images/houses/35.jpg,318.750171666994,0.3000133330060635,0.7500202079972951,319.50019341699954,0,
206,11,7,localizer_images/houses/11.jpg,319.50019520899514,0.3000601249950705,0.7500090829998953,320.2502057919919,0,
207,11,8,localizer_images/houses/15.jpg,320.2502074169897,0.30000912499963306,0.7500405830069212,321.0002494999935,0,
208,11,9,localizer_images/houses/34.jpg,321.00025120899954,0.30002270799013786,0.750053083000239,321.75030595899443,0,
209,11,10,localizer_images/houses/25.jpg,321.7503077500005,0.3000546669936739,0.7500718749943189,322.5003810420021,0,
210,11,11,localizer_images/houses/13.jpg,322.50038329199015,0.30001883300428744,0.7500817920081317,323.25046674998885,0,
211,11,12,localizer_images/houses/23.jpg,323.2504683750012,0.300011083993013,0.7500156249880092,324.0004855839943,0,
212,11,13,localizer_images/houses/36.jpg,324.0004872499994,0.3000444999925094,0.7500155419984367,324.75050437499885,0,
213,11,14,localizer_images/houses/22.jpg,324.75050608399033,0.3000747080077417,0.7500124580110423,325.5005201669992,0,
214,11,15,localizer_images/houses/2.jpg,325.50052183399384,0.3000272500066785,0.7500597909966018,326.2505837919889,0,
215,11,16,localizer_images/houses/7.jpg,326.2505854589981,0.30004512499726843,0.7502155830006814,327.0008026249998,0,
216,11,17,localizer_images/houses/37.jpg,327.00080437499855,0.3000192089966731,0.7500411669898313,327.75084708399663,0,
217,11,18,localizer_images/houses/37.jpg,327.75084937499196,0.3000553750025574,0.7500014999968698,328.50086420899606,1,0.557690208996064
218,11,19,localizer_images/houses/37.jpg,328.50086629200086,0.30004162499972153,0.7500020419975044,329.2508704169886,1,0.7063119579979684
219,11,20,localizer_images/houses/24.jpg,329.2508729999972,0.30004162499972153,0.7500375840027118,330.00091262499336,0,
220,12,1,localizer_images/faces/4.jpg,345.00002187499194,0.30007141700480133,0.7500442090095021,345.75007804199413,0,
221,12,2,localizer_images/faces/3.jpg,345.7500825419993,0.3000335419928888,0.7500433329987573,346.5001273749949,0,
222,12,3,localizer_images/faces/32.jpg,346.5001291249937,0.3000040420010919,0.7500802090071375,347.25021087499044,0,
223,12,4,localizer_images/faces/4.jpg,347.25022912499844,0.3000635839998722,0.7500429170031566,348.0002739170013,0,
224,12,5,localizer_images/faces/40.jpg,348.0002756249887,0.300054542007274,0.7500276250066236,348.7503047499922,0,
225,12,6,localizer_images/faces/37.jpg,348.7503065419878,0.30002495800727047,0.7500530420074938,349.50036220900074,0,
226,12,7,localizer_images/faces/1.jpg,349.50036391698814,0.3000671250047162,0.7500181670038728,350.25038425000093,0,
227,12,8,localizer_images/faces/5.jpg,350.25038579199463,0.30004708300111815,0.7500463750038762,351.0004337499995,0,
228,12,9,localizer_images/faces/4.jpg,351.000435458991,0.30002920801052824,0.7500427080085501,351.75048029200116,0,
229,12,10,localizer_images/faces/9.jpg,351.7504828339879,0.3000127080013044,0.7500545000075363,352.50053933399613,0,
230,12,11,localizer_images/faces/10.jpg,352.50054195900157,0.30007691599894315,0.7500102079939097,353.2505537919933,0,
231,12,12,localizer_images/faces/20.jpg,353.2505555839889,0.3000164160039276,0.7500855000107549,354.0006432090013,0,
232,12,13,localizer_images/faces/12.jpg,354.00064495900006,0.3000474159925943,0.7500773329957156,354.7507320839941,0,
233,12,14,localizer_images/faces/1.jpg,354.7507422089984,0.300005915996735,0.7500327079906128,355.5007765420014,0,
234,12,15,localizer_images/faces/11.jpg,355.5007781669992,0.3000483749929117,0.7500527499942109,356.25083483399067,0,
235,12,16,localizer_images/faces/8.jpg,356.2508370419964,0.30001420799817424,0.7500357079989044,357.000874291989,0,
236,12,17,localizer_images/faces/11.jpg,357.0008765419916,0.3000261670094915,0.7500575000012759,357.7509355840011,0,
237,12,18,localizer_images/faces/32.jpg,357.75093737499265,0.30009279200749006,0.7500599170016358,358.5009987090016,0,
238,12,19,localizer_images/faces/21.jpg,358.5010003339994,0.3000037500023609,0.7500579999905312,359.25106220899033,0,
239,12,20,localizer_images/faces/34.jpg,359.25106483399577,0.3000627080036793,0.7500154159934027,360.0010820419993,0,
