,block_num,trial_id,ImgPath,onset,img_dur,trial_dur,end_time,response, ResponseTime
0,1,1,localizer_images/houses/13.jpg,15.000055791002524,0.3000289169976895,0.7500268750009127,15.750093665999884,0,
1,1,2,localizer_images/houses/36.jpg,15.750095416002296,0.30003054199914914,0.7500125839978864,16.50011866600107,0,
2,1,3,localizer_images/houses/3.jpg,16.50012025000251,0.3000235409999732,0.7500385409985029,17.250160541003424,0,
3,1,4,localizer_images/houses/12.jpg,17.250162166001246,0.3000252499987255,0.7500177090005309,18.000181416002306,0,
4,1,5,localizer_images/houses/23.jpg,18.000183041000128,0.30000829200071166,0.7500226250012929,18.7502089160007,0,
5,1,6,localizer_images/houses/12.jpg,18.75021112500326,0.30001612499836483,0.7500143329998537,19.500228083001275,0,
6,1,7,localizer_images/houses/8.jpg,19.500229625002248,0.30002329099806957,0.7500036249984987,20.250235416002397,0,
7,1,8,localizer_images/houses/11.jpg,20.25023695800337,0.30002841699752025,0.7500224579998758,21.000262000001385,0,
8,1,9,localizer_images/houses/33.jpg,21.000263625002844,0.30000324999855366,0.750030749997677,21.75030491600046,0,
9,1,10,localizer_images/houses/8.jpg,21.750306458001432,0.3000194999985979,0.7500377079995815,22.50034612500167,0,
10,1,11,localizer_images/houses/34.jpg,22.500347625002178,0.30000858299899846,0.7500220830006583,23.250371208003344,0,
11,1,12,localizer_images/houses/29.jpg,23.250372625003365,0.30001120799715864,0.7500399159980589,24.000414375001128,0,
12,1,13,localizer_images/houses/10.jpg,24.000415916001657,0.3000150420011778,0.7500372920003429,24.750454875000287,0,
13,1,14,localizer_images/houses/9.jpg,24.750456375000795,0.3000060410013248,0.7500196250002773,25.500477458001114,0,
14,1,15,localizer_images/houses/12.jpg,25.500479000002088,0.3000155410009029,0.7500316660007229,26.25051216600332,0,
15,1,16,localizer_images/houses/6.jpg,26.250513708000653,0.3000174170010723,0.7500096250005299,27.000524958002643,0,
16,1,17,localizer_images/houses/5.jpg,27.000526541,0.3000258340034634,0.7500290840034722,27.750557375002245,0,
17,1,18,localizer_images/houses/5.jpg,27.75055912500102,0.30003824999948847,0.7500139580006362,28.500574708003114,0,
18,1,19,localizer_images/houses/20.jpg,28.50057625000045,0.30002520800189814,0.7500210830003198,29.25059895800223,0,
19,1,20,localizer_images/houses/24.jpg,29.250600458002737,0.3000209999991057,0.7500035829980334,30.00060562500221,0,
20,2,1,localizer_images/faces/39.jpg,45.0000539160028,0.30000775000007707,0.750037624999095,45.750093665999884,0,
21,2,2,localizer_images/faces/15.jpg,45.75009533300181,0.30001883300064947,0.750033208001696,46.500138666000566,0,
22,2,3,localizer_images/faces/16.jpg,46.500147665999975,0.30004220900082146,0.7500389590022678,47.25018841600104,0,
23,2,4,localizer_images/faces/13.jpg,47.25019033300123,0.30004037500111735,0.7500395829993067,48.00023137500102,0,
24,2,5,localizer_images/faces/10.jpg,48.00023291600155,0.3000427090009907,0.7500187920013559,48.75025379100043,0,
25,2,6,localizer_images/faces/33.jpg,48.75025541600189,0.3000117500014312,0.7500184589989658,49.5002753330009,0,
26,2,7,localizer_images/faces/30.jpg,49.500276916001894,0.30002299999978277,0.7500031249983294,50.25028154100073,0,
27,2,8,localizer_images/faces/5.jpg,50.25028350000139,0.30001650000122027,0.7500276659993688,51.000313250002364,0,
28,2,9,localizer_images/faces/8.jpg,51.00031479100289,0.3000269589974778,0.7500210420002986,51.750345791002474,0,
29,2,10,localizer_images/faces/3.jpg,51.750355708001734,0.30003950000173063,0.7500047920002544,52.500372666003386,0,
30,2,11,localizer_images/faces/8.jpg,52.50037429100121,0.3000227500015171,0.7500019170001906,53.25038595800288,0,
31,2,12,localizer_images/faces/3.jpg,53.25038745800339,0.3000153749999299,0.7500205420001294,54.00040945799992,0,
32,2,13,localizer_images/faces/29.jpg,54.000411000000895,0.3000034159995266,0.7500146250022226,54.75042729100096,0,
33,2,14,localizer_images/faces/18.jpg,54.75042891600242,0.3000327499976265,0.7500164589982887,55.50044754100236,0,
34,2,15,localizer_images/faces/37.jpg,55.50044983300177,0.3000443749988335,0.7500063330007833,56.25045816600323,0,
35,2,16,localizer_images/faces/12.jpg,56.25045970800056,0.30004241700225975,0.7500274170015473,57.00048858300215,0,
36,2,17,localizer_images/faces/35.jpg,57.000490207999974,0.30002820800291374,0.7500370830020984,57.750529833003384,0,
37,2,18,localizer_images/faces/19.jpg,57.75053191600091,0.30001904200253193,0.7500374170012947,58.500570958000026,0,
38,2,19,localizer_images/faces/31.jpg,58.50057254100102,0.30003587499959394,0.7500032499992813,59.25057725000079,0,
39,2,20,localizer_images/faces/19.jpg,59.250578750001296,0.30004204099896015,0.7500246660019911,60.00060491600016,0,
40,3,1,localizer_images/houses/34.jpg,75.0000536660009,0.30003729199961526,0.7500209589998121,75.75007629100219,0,
41,3,2,localizer_images/houses/29.jpg,75.75007791600001,0.3000491670027259,0.7500341250015481,76.5001140830027,0,
42,3,3,localizer_images/houses/21.jpg,76.50011566600006,0.30002204199990956,0.7500475840024592,77.25017345800006,0,
43,3,4,localizer_images/houses/36.jpg,77.25018350000028,0.3000066250024247,0.7500241660018219,78.0002091660026,0,
44,3,5,localizer_images/houses/6.jpg,78.00021062500309,0.3000350829970557,0.7500131249980768,78.75022541600265,0,
45,3,6,localizer_images/houses/31.jpg,78.75022700000045,0.3000131250009872,0.7500183750016731,79.5002473750028,0,
46,3,7,localizer_images/houses/3.jpg,79.50024891600333,0.30000187499899766,0.7500236669984588,80.2502740830023,0,
47,3,8,localizer_images/houses/17.jpg,80.25027566600329,0.30002129199783667,0.7500202089977392,81.00029754100251,0,
48,3,9,localizer_images/houses/13.jpg,81.00029908300348,0.30000454199762316,0.7500103749989648,81.75031104100344,0,
49,3,10,localizer_images/houses/38.jpg,81.75031262500124,0.30002225000134786,0.750023249998776,82.50033737500053,0,
50,3,11,localizer_images/houses/17.jpg,82.50033904100201,0.3000480839982629,0.7500420420001319,83.25038345800203,0,
51,3,12,localizer_images/houses/5.jpg,83.25038570800098,0.30004920799910906,0.7500132499990286,84.0004011250021,0,
52,3,13,localizer_images/houses/25.jpg,84.00040262500261,0.30000591600037296,0.7500263750007434,84.75043054100024,0,
53,3,14,localizer_images/houses/30.jpg,84.75043212500168,0.3000352080016455,0.7500299159983115,85.50046358300096,0,
54,3,15,localizer_images/houses/29.jpg,85.50046525000289,0.30003395799940336,0.7500097909978649,86.25047658300173,0,
55,3,16,localizer_images/houses/14.jpg,86.25047808300224,0.30002062499988824,0.7500392500005546,87.00051887500013,0,
56,3,17,localizer_images/houses/14.jpg,87.00052037500063,0.3000114999995276,0.7500388750013371,87.75057804100288,0,
57,3,18,localizer_images/houses/13.jpg,87.7505796660007,0.3000142090022564,0.7500379590019293,88.50061995800206,0,
58,3,19,localizer_images/houses/3.jpg,88.50062150000304,0.30002158299976145,0.7500162910000654,89.25063929099997,0,
59,3,20,localizer_images/houses/33.jpg,89.25064083300094,0.3000123750025523,0.7500103749989648,90.00065275000088,0,
60,4,1,localizer_images/faces/15.jpg,105.000056416,0.30003045900230063,0.7500060420024965,105.75006416600081,0,
61,4,2,localizer_images/faces/16.jpg,105.75006575000225,0.30005066599915153,0.7500286659997073,106.5000966660009,0,
62,4,3,localizer_images/faces/24.jpg,106.50009816600141,0.3000169590013684,0.7500147089995153,107.25011433300097,0,
63,4,4,localizer_images/faces/16.jpg,107.25011587500194,0.30004600000029313,0.7500372499998775,108.00015462500232,0,
64,4,5,localizer_images/faces/15.jpg,108.00015616600285,0.30000549999749637,0.7500269589982054,108.750184833003,0,
65,4,6,localizer_images/faces/5.jpg,108.75018650000129,0.30002075000084005,0.7500292500008072,109.50021770800231,0,
66,4,7,localizer_images/faces/20.jpg,109.5002192910033,0.30005366699697333,0.7500517089974892,110.25027254100132,0,
67,4,8,localizer_images/faces/22.jpg,110.2502740830023,0.3000291249991278,0.7500466669989692,111.00032225000177,0,
68,4,9,localizer_images/faces/35.jpg,111.0003237910023,0.30003512500115903,0.7500318749989674,111.7503658750029,0,
69,4,10,localizer_images/faces/3.jpg,111.75036745800026,0.30002291700293426,0.7500275420024991,112.50039650000326,0,
70,4,11,localizer_images/faces/25.jpg,112.50040600000284,0.3000371249981981,0.7500412909976149,113.25044879100096,0,
71,4,12,localizer_images/faces/20.jpg,113.25045033300194,0.3000078750010289,0.7500272079996648,114.00047908300257,0,
72,4,13,localizer_images/faces/7.jpg,114.00048066599993,0.3000440840005467,0.750023084001441,114.75050591600302,0,
73,4,14,localizer_images/faces/8.jpg,114.75050758300131,0.3000037080018956,0.7500191670005734,115.50052991600023,0,
74,4,15,localizer_images/faces/2.jpg,115.50053220800328,0.3000242079979216,0.7500219579997065,116.25055570800032,0,
75,4,16,localizer_images/faces/19.jpg,116.25055733300178,0.3000462919990241,0.7500072920011007,117.00056616600341,0,
76,4,17,localizer_images/faces/6.jpg,117.00056779100123,0.3000105419996544,0.7500409169988416,117.75061887500124,0,
77,4,18,localizer_images/faces/17.jpg,117.75062620800236,0.3000529579985596,0.7500046669993026,118.50063750000118,0,
78,4,19,localizer_images/faces/8.jpg,118.50063908300217,0.3000025830006052,0.7500033750002331,119.25064395800291,0,
79,4,20,localizer_images/faces/8.jpg,119.25064795800063,0.3000520420027897,0.7500017920028768,120.00065733300289,1,0.7030562079999072
80,5,1,localizer_images/houses/33.jpg,135.00005204100307,0.30004687499967986,0.7500508339981025,135.75010616600048,0,
81,5,2,localizer_images/houses/14.jpg,135.75010770800145,0.30004475000168895,0.7500327500019921,136.50014312500207,0,
82,5,3,localizer_images/houses/1.jpg,136.50014470800306,0.30003170799682266,0.7500514999992447,137.25019766600235,0,
83,5,4,localizer_images/houses/18.jpg,137.25019916600286,0.3000257089988736,0.7500397089970647,138.00024083300013,0,
84,5,5,localizer_images/houses/8.jpg,138.00024250000206,0.3000315409990435,0.7500508330012963,138.75029537500086,0,
85,5,6,localizer_images/houses/29.jpg,138.75029695800185,0.30004245799864293,0.7500375829986297,139.50033733300006,0,
86,5,7,localizer_images/houses/7.jpg,139.50033887500103,0.30001529099899926,0.7500017500024114,140.25034225000127,0,
87,5,8,localizer_images/houses/11.jpg,140.25034375000178,0.300023666000925,0.7500122909987113,141.0003577910029,0,
88,5,9,localizer_images/houses/31.jpg,141.00035950000165,0.300037875000271,0.750007957998605,141.7503695000014,0,
89,5,10,localizer_images/houses/33.jpg,141.75037166600305,0.3000024590000976,0.7500183749980351,142.50039204100176,0,
90,5,11,localizer_images/houses/24.jpg,142.5003937500005,0.3000269580006716,0.7500305409994326,143.25043412500236,0,
91,5,12,localizer_images/houses/21.jpg,143.2504356660029,0.3000542499976291,0.7500145839985635,144.00045200000022,0,
92,5,13,localizer_images/houses/17.jpg,144.00045375000263,0.30001720799918985,0.7500543749993085,144.7505102080031,0,
93,5,14,localizer_images/houses/2.jpg,144.75051183300093,0.3000227500015171,0.7500422920020355,145.500555583003,0,
94,5,15,localizer_images/houses/15.jpg,145.5005572500013,0.3000149159997818,0.7500129159998323,146.250572500001,0,
95,5,16,localizer_images/houses/9.jpg,146.25057479099996,0.30000816700339783,0.7500173750013346,147.00059375000274,0,
96,5,17,localizer_images/houses/37.jpg,147.00059529100326,0.3000571249976929,0.7500170419989445,147.7506142500024,0,
97,5,18,localizer_images/houses/26.jpg,147.75061612500213,0.30004445799932,0.7500271659991995,148.500645291002,0,
98,5,19,localizer_images/houses/1.jpg,148.50064750000092,0.30005837499993504,0.7500570830015931,149.25070675000097,0,
99,5,20,localizer_images/houses/36.jpg,149.25070820800102,0.30003804200168815,0.7500251669989666,150.00073495800098,0,
100,6,1,localizer_images/faces/35.jpg,165.0000495000022,0.3000386659987271,0.7500136249982461,165.75007316600022,0,
101,6,2,localizer_images/faces/7.jpg,165.75007475000166,0.3000407079998695,0.7500210830003198,166.50009745800344,0,
102,6,3,localizer_images/faces/37.jpg,166.5000990410008,0.3000551670011191,0.750023542001145,167.25012429100025,0,
103,6,4,localizer_images/faces/33.jpg,167.2501259160017,0.30003012499946635,0.7500092920017778,168.00013716600006,0,
104,6,5,localizer_images/faces/29.jpg,168.0001387500015,0.30003737500010175,0.7500494999985676,168.75018975000057,0,
105,6,6,localizer_images/faces/18.jpg,168.75019141600205,0.30001179199825856,0.7500099169992609,169.5002039580031,0,
106,6,7,localizer_images/faces/4.jpg,169.50020550000045,0.30002299999978277,0.7500559159998375,170.2502800000002,0,
107,6,8,localizer_images/faces/19.jpg,170.25028154100073,0.3000148339997395,0.7500481250026496,171.00033133300167,0,
108,6,9,localizer_images/faces/6.jpg,171.00033291600266,0.300044749998051,0.7500163749973581,171.75035200000275,0,
109,6,10,localizer_images/faces/23.jpg,171.75035362500057,0.3000174580010935,0.7500617500008957,172.50042404100168,0,
110,6,11,localizer_images/faces/39.jpg,172.50042562500312,0.3000069999980042,0.7500068329973146,173.25043395800094,0,
111,6,12,localizer_images/faces/39.jpg,173.25044320800225,0.30003779199978453,0.7500014580000425,174.00044608300232,1,0.5483047919988167
112,6,13,localizer_images/faces/23.jpg,174.00044770800014,0.3000385000013921,0.7500542080015293,174.75050354100313,0,
113,6,14,localizer_images/faces/31.jpg,174.750505041,0.30005104200245114,0.7500108750027721,175.50051845800044,0,
114,6,15,localizer_images/faces/27.jpg,175.50052516600044,0.3000187090001418,0.750036249999539,176.25056295800096,0,
115,6,16,localizer_images/faces/37.jpg,176.25056450000193,0.30004112499955227,0.7500277500002994,177.00059383300322,0,
116,6,17,localizer_images/faces/26.jpg,177.00059554100153,0.30006391699862434,0.7500513750019309,177.7506497909999,0,
117,6,18,localizer_images/faces/40.jpg,177.75065162500323,0.3000478750000184,0.7500492079998367,178.50070391600093,0,
118,6,19,localizer_images/faces/20.jpg,178.50070600000254,0.30000612499861745,0.750038999998651,179.25074654100172,0,
119,6,20,localizer_images/faces/6.jpg,179.250748208,0.30005979199995636,0.7500283330009552,180.00077804100147,0,
120,7,1,localizer_images/houses/23.jpg,195.00005266600056,0.30005529200207093,0.7500554590005777,195.75011029100278,0,
121,7,2,localizer_images/houses/27.jpg,195.75011183300012,0.30002745800084085,0.7500329169997713,196.5001474160017,0,
122,7,3,localizer_images/houses/28.jpg,196.50014962500063,0.3000582500026212,0.7500044160005928,197.2501723330024,0,
123,7,4,localizer_images/houses/34.jpg,197.25017379100245,0.30001274999813177,0.7500049169975682,198.000180250001,0,
124,7,5,localizer_images/houses/34.jpg,198.0001817500015,0.30003887500060955,0.7500023329994292,198.75019433300258,1,0.6417890000011539
125,7,6,localizer_images/houses/32.jpg,198.75020441600282,0.3000650419999147,0.7500632499977655,199.50026912500107,0,
126,7,7,localizer_images/houses/40.jpg,199.50027070800206,0.30003066700010095,0.7500495829990541,200.2503218330021,0,
127,7,8,localizer_images/houses/16.jpg,200.25032337500306,0.30001558299773023,0.7500313749987981,201.00036554100006,0,
128,7,9,localizer_images/houses/16.jpg,201.0003671250015,0.30004183300115983,0.7500022499989427,201.75037112500286,1,0.6564797909995832
129,7,10,localizer_images/houses/8.jpg,201.75037275000068,0.3000060410013248,0.7500187080004252,202.50040137500037,0,
130,7,11,localizer_images/houses/21.jpg,202.50040295800136,0.30004483299853746,0.750013917000615,203.25041833300202,0,
131,7,12,localizer_images/houses/24.jpg,203.25042762500016,0.30000945800202317,0.7500445410005341,204.00047362500118,0,
132,7,13,localizer_images/houses/15.jpg,204.0004833330022,0.30000966700026765,0.7500625829998171,204.750548041,0,
133,7,14,localizer_images/houses/36.jpg,204.7505495410005,0.30002504200092517,0.7500050000016927,205.50055658300334,0,
134,7,15,localizer_images/houses/10.jpg,205.50055870800134,0.30003641700022854,0.7500252079989878,206.25058608300242,0,
135,7,16,localizer_images/houses/26.jpg,206.2505876660034,0.3000540839966561,0.7500346669985447,207.00062400000024,0,
136,7,17,localizer_images/houses/4.jpg,207.00062550000075,0.3000138749994221,0.7500614160016994,207.75068866600122,0,
137,7,18,localizer_images/houses/32.jpg,207.75069062500188,0.30002891600088333,0.7500140000011015,208.50070620800034,0,
138,7,19,localizer_images/houses/16.jpg,208.5007077500013,0.30000262500107056,0.7500194579988602,209.2507286660002,0,
139,7,20,localizer_images/houses/20.jpg,209.2507302080012,0.30001487499976065,0.7500560000007681,210.000787666002,0,
140,8,1,localizer_images/faces/18.jpg,225.00006691599992,0.30002420900200377,0.7500455840017821,225.7501140830027,0,
141,8,2,localizer_images/faces/36.jpg,225.75011566600006,0.3000100420031231,0.7500433750028606,226.50016066600074,0,
142,8,3,localizer_images/faces/39.jpg,226.50016212500122,0.30004558300061035,0.7500631250004517,227.25022733300284,0,
143,8,4,localizer_images/faces/10.jpg,227.25022895800066,0.30000954199931584,0.7500397500007239,228.00027079100255,0,
144,8,5,localizer_images/faces/2.jpg,228.00027229100306,0.3000134169997182,0.7500143340002978,228.75028870800088,0,
145,8,6,localizer_images/faces/20.jpg,228.75029041600283,0.3000722920005501,0.7500732499975129,229.50036625000212,0,
146,8,7,localizer_images/faces/26.jpg,229.5003678330031,0.3000523329974385,0.7500577079990762,230.25043641600132,0,
147,8,8,localizer_images/faces/26.jpg,230.25043800000276,0.30004245799864293,0.7500011659976735,231.00044104100016,1,0.5556234579999
148,8,9,localizer_images/faces/24.jpg,231.00044250000064,0.3000371250018361,0.7500132500026666,231.75046629100325,0,
149,8,10,localizer_images/faces/15.jpg,231.7504764160003,0.30002191700259573,0.7500291670003207,232.50051545800306,0,
150,8,11,localizer_images/faces/1.jpg,232.5005170000004,0.3000547910014575,0.7500686250023136,233.25058733300102,0,
151,8,12,localizer_images/faces/23.jpg,233.25058891600202,0.30005145899849595,0.7500047920002544,234.00059520800278,0,
152,8,13,localizer_images/faces/22.jpg,234.0005967500001,0.3000584580004215,0.7500733750021027,234.75068858300074,0,
153,8,14,localizer_images/faces/12.jpg,234.75069016600173,0.30002712499845074,0.750020791998395,235.50072220800212,0,
154,8,15,localizer_images/faces/19.jpg,235.50072450000152,0.30000412500157836,0.7500445000005129,236.25077941600102,0,
155,8,16,localizer_images/faces/14.jpg,236.2507882500031,0.30001729099967633,0.7500482499999634,237.00083804099995,0,
156,8,17,localizer_images/faces/33.jpg,237.00083958300092,0.3000705830017978,0.7500153750006575,237.75086579100025,0,
157,8,18,localizer_images/faces/22.jpg,237.75086758300313,0.3000106669969682,0.7500239170003624,238.50089300000036,0,
158,8,19,localizer_images/faces/11.jpg,238.50089450000087,0.30007033299989416,0.7500444580000476,239.2509577910023,0,
159,8,20,localizer_images/faces/19.jpg,239.25095933300327,0.3000362919992767,0.7500067080000008,240.0009690830011,0,
160,9,1,localizer_images/houses/35.jpg,255.00005262500054,0.3000331660005031,0.7500507080003445,255.75013050000052,0,
161,9,2,localizer_images/houses/16.jpg,255.75013212500198,0.30004175000067335,0.7500224159994104,256.500164750003,0,
162,9,3,localizer_images/houses/34.jpg,256.5001662909999,0.3000462090021756,0.7500397500007239,257.25022533300216,0,
163,9,4,localizer_images/houses/37.jpg,257.25022691600316,0.30001145899950643,0.7501510839974799,258.0003796250021,0,
164,9,5,localizer_images/houses/35.jpg,258.0003811660026,0.3000020420004148,0.7500547919989913,258.7504468750012,0,
165,9,6,localizer_images/houses/32.jpg,258.7504485410027,0.3000341249971825,0.7500370839989046,259.50049570800184,0,
166,9,7,localizer_images/houses/32.jpg,259.5004972500028,0.3000727079997887,0.7500019159997464,260.25050083300084,1,0.6001585409976542
167,9,8,localizer_images/houses/24.jpg,260.25050225000086,0.3000424580022809,0.7500426660008088,261.00055508300284,0,
168,9,9,localizer_images/houses/6.jpg,261.0005565410029,0.3000321250001434,0.7500627499975963,261.7506292080034,0,
169,9,10,localizer_images/houses/14.jpg,261.7506307500007,0.3000306249996356,0.7500221660011448,262.5006617500003,0,
170,9,11,localizer_images/houses/18.jpg,262.5006633330013,0.30001562500183354,0.7500172500003828,263.25069075000283,0,
171,9,12,localizer_images/houses/19.jpg,263.2507004160034,0.30004283399830456,0.750040999999328,264.00075958300295,0,
172,9,13,localizer_images/houses/3.jpg,264.00076937500125,0.30006733299887856,0.7500435410001955,264.7508227500002,0,
173,9,14,localizer_images/houses/31.jpg,264.7508311660022,0.30006349999894155,0.7500322499981849,265.50086512500275,0,
174,9,15,localizer_images/houses/19.jpg,265.50086675000057,0.3000051250019169,0.750013166001736,266.25088991600205,0,
175,9,16,localizer_images/houses/6.jpg,266.2508996659999,0.3000168750004377,0.7500018750033632,267.00090345800345,0,
176,9,17,localizer_images/houses/3.jpg,267.0009050000008,0.3000780830006988,0.7500237910026044,267.7509641659999,0,
177,9,18,localizer_images/houses/8.jpg,267.75097483300124,0.3000696669987519,0.7500112080015242,268.500995958002,0,
178,9,19,localizer_images/houses/22.jpg,268.5009976250003,0.3000207910008612,0.7500607910005783,269.2510687910035,0,
179,9,20,localizer_images/houses/32.jpg,269.25107029100036,0.3000235840008827,0.7500592090000282,270.0011398330025,0,
180,10,1,localizer_images/faces/13.jpg,285.0000535830004,0.3000632500006759,0.7500392080000893,285.7500961250007,0,
181,10,2,localizer_images/faces/27.jpg,285.75009766600124,0.30000741700132494,0.7500097090014606,286.5001094580002,0,
182,10,3,localizer_images/faces/12.jpg,286.5001110410012,0.3000282920002064,0.7500485839991597,287.2501616660011,0,
183,10,4,localizer_images/faces/11.jpg,287.2501637910027,0.30001595899739186,0.7503119169996353,288.0004773750006,0,
184,10,5,localizer_images/faces/32.jpg,288.0004789580016,0.3000294999983453,0.750003832999937,288.75049333300194,0,
185,10,6,localizer_images/faces/7.jpg,288.7505035000031,0.3000359159996151,0.750060874997871,289.5005745000017,0,
186,10,7,localizer_images/faces/18.jpg,289.500576208,0.30001800000172807,0.7500519580025866,290.2506379580009,0,
187,10,8,localizer_images/faces/7.jpg,290.25063950000185,0.30004916599864373,0.750232665999647,291.00087379100296,0,
188,10,9,localizer_images/faces/37.jpg,291.00087545800125,0.30006829199919594,0.7500294170022244,291.7509065410013,0,
189,10,10,localizer_images/faces/30.jpg,291.75090825000007,0.30000487500001327,0.7500675410010444,292.5010023750001,0,
190,10,11,localizer_images/faces/29.jpg,292.5010039580011,0.3000581250016694,0.7500299999992421,293.2510454580006,0,
191,10,12,localizer_images/faces/31.jpg,293.25104700000156,0.3000265410009888,0.7500175409986696,294.00106725000296,0,
192,10,13,localizer_images/faces/33.jpg,294.001068708003,0.30005283299760777,0.7500386249994335,294.7511158330017,0,
193,10,14,localizer_images/faces/3.jpg,294.7511173330022,0.30007141700116335,0.7500792079990788,295.50122383300186,0,
194,10,15,localizer_images/faces/29.jpg,295.5012260830008,0.3000492499995744,0.7500294170022244,296.25126533300136,0,
195,10,16,localizer_images/faces/15.jpg,296.2512739160011,0.3000588750001043,0.7500470420018246,297.0013226250012,0,
196,10,17,localizer_images/faces/20.jpg,297.0013241250017,0.3000298750012007,0.7500232079983107,297.75135633300306,0,
197,10,18,localizer_images/faces/21.jpg,297.75136516600105,0.30003783400024986,0.7500577089995204,298.50142445800157,0,
198,10,19,localizer_images/faces/10.jpg,298.5014259580021,0.30001466699832235,0.7500676249983371,299.25149520800187,0,
199,10,20,localizer_images/faces/30.jpg,299.25149679100286,0.3000254170001426,0.7500765000004321,300.00157537500127,0,
200,11,1,localizer_images/houses/13.jpg,315.00005287500244,0.3000753749984142,0.7500469999977213,315.75010137500067,0,
201,11,2,localizer_images/houses/27.jpg,315.7501028750012,0.30001154099954874,0.750076625001384,316.5001904580022,0,
202,11,3,localizer_images/houses/9.jpg,316.50019220800095,0.3000544579990674,0.7500234170001931,317.2502265410003,0,
203,11,4,localizer_images/houses/13.jpg,317.2502280410008,0.300037875000271,0.7500116670016723,318.00024137500077,0,
204,11,5,localizer_images/houses/37.jpg,318.0002429160013,0.30000474999906146,0.7500407500010624,318.75029354100116,0,
205,11,6,localizer_images/houses/23.jpg,318.75030320800215,0.3000114999995276,0.7500170419989445,319.5003371660023,0,
206,11,7,localizer_images/houses/38.jpg,319.5003469580006,0.3000797919994511,0.7500216250009544,320.2503706660027,0,
207,11,8,localizer_images/houses/19.jpg,320.25037220800004,0.30005145800168975,0.7500570830015931,321.0004309579999,0,
208,11,9,localizer_images/houses/4.jpg,321.00043245800043,0.30003558300086297,0.7500034170006984,321.7504373330012,0,
209,11,10,localizer_images/houses/14.jpg,321.75044720799997,0.30005479200190166,0.7500757080015319,322.5005278330027,0,
210,11,11,localizer_images/houses/22.jpg,322.50052929100275,0.3000549169992155,0.7500085419997049,323.25054029100284,0,
211,11,12,localizer_images/houses/33.jpg,323.25054295800146,0.3000629170019238,0.7502759999988484,324.00082083300003,0,
212,11,13,localizer_images/houses/30.jpg,324.00082233300054,0.30006587500247406,0.7500432920023741,324.75086770800044,0,
213,11,14,localizer_images/houses/2.jpg,324.7508775410024,0.3000527090007381,0.7500424589998147,325.5009302080034,0,
214,11,15,localizer_images/houses/40.jpg,325.50093179100077,0.3000073750008596,0.75002279200271,326.2509635410024,0,
215,11,16,localizer_images/houses/32.jpg,326.2509650830034,0.3000842499968712,0.7500664999970468,327.0010335830011,0,
216,11,17,localizer_images/houses/20.jpg,327.0010356660023,0.30007062499862514,0.7500150839987327,327.7510608750017,0,
217,11,18,localizer_images/houses/14.jpg,327.7510707500005,0.30006383300133166,0.7500873330027389,328.5011689580024,0,
218,11,19,localizer_images/houses/14.jpg,328.50117062500067,0.3000869160023285,0.7500018329992599,329.25118304100033,1,0.6346550410016789
219,11,20,localizer_images/houses/5.jpg,329.2511920830002,0.3000767920020735,0.7500121250013763,330.0012069580007,0,
220,12,1,localizer_images/faces/19.jpg,345.00005325000166,0.3000180829985766,0.7500698750009178,345.7501251660033,0,
221,12,2,localizer_images/faces/7.jpg,345.7501267080006,0.3000503330003994,0.7500815830026113,346.5002149580032,0,
222,12,3,localizer_images/faces/21.jpg,346.50021654100055,0.3000898339996638,0.750033333999454,347.2502519580012,0,
223,12,4,localizer_images/faces/8.jpg,347.25025350000215,0.30009129099926213,0.7502990829998453,348.0005542910003,0,
224,12,5,localizer_images/faces/22.jpg,348.00055587500174,0.3000240000001213,0.7500512910010002,348.75060858300276,0,
225,12,6,localizer_images/faces/5.jpg,348.75061704100153,0.30002487499950803,0.750058417001128,349.5006776250011,0,
226,12,7,localizer_images/faces/23.jpg,349.50067916600165,0.3000839589985844,0.7500071249996836,350.2506878330023,0,
227,12,8,localizer_images/faces/18.jpg,350.2506893330028,0.3000501249989611,0.7500419579992013,351.0007331250017,0,
228,12,9,localizer_images/faces/10.jpg,351.00073466600224,0.3000698750001902,0.7500743339987821,351.75082004100113,0,
229,12,10,localizer_images/faces/16.jpg,351.7508216250026,0.30003554100039764,0.7500849579992064,352.5009162910028,0,
230,12,11,localizer_images/faces/8.jpg,352.5009179580011,0.3000234579994867,0.750019125000108,353.25095570800113,0,
231,12,12,localizer_images/faces/8.jpg,353.25096295800176,0.30007150000164984,0.7500014580000425,354.0009749160017,1,0.7446452080002928
232,12,13,localizer_images/faces/27.jpg,354.0009830000017,0.3000539579988981,0.750018208000256,354.75100275000295,0,
233,12,14,localizer_images/faces/28.jpg,354.7510043330003,0.300040333000652,0.7500651670015941,355.50107254100294,0,
234,12,15,localizer_images/faces/9.jpg,355.5010747910019,0.3000172499996552,0.7500489170015499,356.2511334160008,0,
235,12,16,localizer_images/faces/6.jpg,356.25114179100274,0.3000205839998671,0.7501136249993579,357.00125775000197,0,
236,12,17,localizer_images/faces/7.jpg,357.00125979100267,0.30006991700065555,0.7500144589976117,357.75127591600176,0,
237,12,18,localizer_images/faces/11.jpg,357.75127887500275,0.3000743329976103,0.7500564999972994,358.50134620800236,0,
238,12,19,localizer_images/faces/23.jpg,358.50135445800333,0.3000920419981412,0.7500375419986085,359.25140233300044,0,
239,12,20,localizer_images/faces/39.jpg,359.25140383300095,0.30003600000054576,0.7500146250022226,360.00142004100053,0,
