,block_num,trial_id,ImgPath,onset,img_dur,trial_dur,end_time,response, ResponseTime
0,1,1,localizer_images/faces/17.jpg,15.000029582995921,0.30002883300039684,0.750009958006558,15.75004149999586,0,
1,1,2,localizer_images/faces/5.jpg,15.750043207997805,0.30002233300183434,0.7500380420024158,16.500084040999354,0,
2,1,3,localizer_images/faces/17.jpg,16.500085749998107,0.3000243330025114,0.7500167079997482,17.250104291000753,0,
3,1,4,localizer_images/faces/6.jpg,17.250105915998574,0.3000015420038835,0.7500281250031549,18.000135791000503,0,
4,1,5,localizer_images/faces/21.jpg,18.000137333001476,0.3000245000002906,0.7500213329985854,18.750177624999196,0,
5,1,6,localizer_images/faces/34.jpg,18.750187666002603,0.3000056669989135,0.7500360419944627,19.50022541599901,0,
6,1,7,localizer_images/faces/28.jpg,19.500227083000937,0.3000144170000567,0.7500139580006362,20.250242875001277,0,
7,1,8,localizer_images/faces/2.jpg,20.250244415998168,0.3000291249991278,0.7500131670021801,21.000259708001977,0,
8,1,9,localizer_images/faces/13.jpg,21.00026174999948,0.3000133329987875,0.7500288329974865,21.75029333299608,0,
9,1,10,localizer_images/faces/2.jpg,21.75029545799771,0.3000144170000567,0.7500135000009323,22.50031108300027,0,
10,1,11,localizer_images/faces/25.jpg,22.50031270799809,0.30002729200350586,0.7500181249997695,23.250352666000254,0,
11,1,12,localizer_images/faces/10.jpg,23.250354165997123,0.3000317920013913,0.7500090840039775,24.000381833000574,0,
12,1,13,localizer_images/faces/31.jpg,24.000391749999835,0.3000294160010526,0.7500267499999609,24.750420124997618,0,
13,1,14,localizer_images/faces/7.jpg,24.750421750002715,0.3000125409962493,0.7500183329975698,25.500441582997155,0,
14,1,15,localizer_images/faces/12.jpg,25.5004430830013,0.30003895799745806,0.7500159999981406,26.250460707997263,0,
15,1,16,localizer_images/faces/11.jpg,26.25046233300236,0.30003258299984736,0.7500314169956255,27.00049533299898,0,
16,1,17,localizer_images/faces/3.jpg,27.000496874999953,0.30003841599682346,0.7500139159965329,27.750512749997142,0,
17,1,18,localizer_images/faces/28.jpg,27.75051458300004,0.30001966699637705,0.7500299579987768,28.500546415998542,0,
18,1,19,localizer_images/faces/30.jpg,28.500547999996343,0.30003654100437416,0.7500201660004677,29.250578040999244,0,
19,1,20,localizer_images/faces/21.jpg,29.25058620799973,0.30003779199614655,0.7500162919968716,30.000604250002652,0,
20,2,1,localizer_images/houses/6.jpg,45.000033208001696,0.3000152499953401,0.7500170829953277,45.75005195799895,0,
21,2,2,localizer_images/houses/36.jpg,45.75005354099994,0.30001958399952855,0.7500131670021801,46.50006837499677,0,
22,2,3,localizer_images/houses/28.jpg,46.500069957997766,0.30002458300441504,0.7500352499992005,47.25010729100177,0,
23,2,4,localizer_images/houses/24.jpg,47.25010900000052,0.30001237499527633,0.7500419579955633,48.00015308299771,0,
24,2,5,localizer_images/houses/38.jpg,48.000154540997755,0.3000417090006522,0.7500253340040217,48.75018162500055,0,
25,2,6,localizer_images/houses/33.jpg,48.75018324999837,0.30000304100394715,0.7500332499985234,49.50021800000104,0,
26,2,7,localizer_images/houses/28.jpg,49.50021954099793,0.3000377499993192,0.7500292920012726,50.250250457997026,0,
27,2,8,localizer_images/houses/5.jpg,50.250251999998,0.3000119159987662,0.7500404160018661,51.000293915996735,0,
28,2,9,localizer_images/houses/31.jpg,51.000295958001516,0.300021041999571,0.7500091249967227,51.7503079579983,0,
29,2,10,localizer_images/houses/3.jpg,51.750309582996124,0.3000051670023822,0.7500277080034721,52.500338749996445,0,
30,2,11,localizer_images/houses/40.jpg,52.50034037500154,0.3000023329950636,0.750012999997125,53.25035487500281,0,
31,2,12,localizer_images/houses/11.jpg,53.250356541000656,0.30002691700065043,0.7500214589963434,54.00037945799704,0,
32,2,13,localizer_images/houses/33.jpg,54.00038874999882,0.3000394580012653,0.7500450829975307,54.7504355830024,0,
33,2,14,localizer_images/houses/2.jpg,54.75043716599612,0.3000109170025098,0.7500139590047183,55.50045266599773,0,
34,2,15,localizer_images/houses/25.jpg,55.500454250002804,0.30001624999567866,0.7500269159936579,56.25048283299839,0,
35,2,16,localizer_images/houses/14.jpg,56.25048437499936,0.30001050000282703,0.7500185000026249,57.000504415998876,0,
36,2,17,localizer_images/houses/11.jpg,57.000505915995745,0.3000131670050905,0.7500311670009978,57.75053887499962,0,
37,2,18,localizer_images/houses/37.jpg,57.75054049999744,0.30001150000316557,0.7500025410045055,58.50054454099882,0,
38,2,19,localizer_images/houses/24.jpg,58.50054608299979,0.3000376670024707,0.7500382079961128,59.250585707995924,0,
39,2,20,localizer_images/houses/22.jpg,59.25058720800007,0.3000048749963753,0.7500032919997466,60.00059204099671,0,
40,3,1,localizer_images/faces/33.jpg,75.00004158299998,0.3000088330009021,0.7500360420017387,75.75007941600052,0,
41,3,2,localizer_images/faces/3.jpg,75.75008116599929,0.30001050000282703,0.7500185000026249,76.50010116599879,0,
42,3,3,localizer_images/faces/8.jpg,76.50010270799976,0.30004162499972153,0.7500366669992218,77.25014141599968,0,
43,3,4,localizer_images/faces/22.jpg,77.2501430409975,0.30002387500280747,0.7500344590007444,78.00017975000083,0,
44,3,5,localizer_images/faces/36.jpg,78.00018208300025,0.30000599999766564,0.7500402079967898,78.75022954100132,0,
45,3,6,localizer_images/faces/29.jpg,78.750231541002,0.30001916699984577,0.7500076249998529,79.5002408329965,0,
46,3,7,localizer_images/faces/4.jpg,79.50024241599749,0.30003716699866345,0.7500410840002587,80.25028504100192,0,
47,3,8,localizer_images/faces/31.jpg,80.25028662499972,0.3000060409976868,0.7500393750015064,81.00032754099811,0,
48,3,9,localizer_images/faces/12.jpg,81.00032916599594,0.30000754200591473,0.7500145840022014,81.7503452910023,0,
49,3,10,localizer_images/faces/22.jpg,81.75034700000106,0.30003416600084165,0.7500492079998367,82.5003982499984,0,
50,3,11,localizer_images/faces/15.jpg,82.50039979100256,0.3000344589963788,0.7500216249973164,83.2504230409977,0,
51,3,12,localizer_images/faces/21.jpg,83.25042458299868,0.3000251249977737,0.7500329169997713,84.00045908299944,0,
52,3,13,localizer_images/faces/21.jpg,84.00046062500041,0.3000078749973909,0.7500022079984774,84.75046450000082,1,0.48183420799614396
53,3,14,localizer_images/faces/11.jpg,84.75046633299644,0.3000042920029955,0.7500089580062195,85.50047691600048,0,
54,3,15,localizer_images/faces/36.jpg,85.50047849999828,0.30002308300026925,0.7500450000006822,86.25053483300144,0,
55,3,16,localizer_images/faces/10.jpg,86.25053645799926,0.30005050000181654,0.7500495830026921,87.0005877079966,0,
56,3,17,localizer_images/faces/13.jpg,87.00058924999757,0.3000248329990427,0.7500051660026656,87.75062079099735,0,
57,3,18,localizer_images/faces/13.jpg,87.75062979100039,0.30002008399605984,0.7500017089987523,88.50063304099604,1,0.5986494589960785
58,3,19,localizer_images/faces/8.jpg,88.50063462500111,0.3000040409970097,0.7500507500008098,89.25068679099786,0,
59,3,20,localizer_images/faces/32.jpg,89.25068837499566,0.30002020800020546,0.7500262080066022,90.00071608299913,0,
60,4,1,localizer_images/houses/31.jpg,105.00004425000225,0.3000116659968626,0.7500507499935338,105.75009675000183,0,
61,4,2,localizer_images/houses/14.jpg,105.75009854100063,0.30005070899642305,0.7500505419957335,106.50015125000209,0,
62,4,3,localizer_images/houses/5.jpg,106.50015279099898,0.3000478340036352,0.75003745900176,107.25019233299827,0,
63,4,4,localizer_images/houses/28.jpg,107.25019379099831,0.3000339999998687,0.7500428339990322,108.00023812500149,0,
64,4,5,localizer_images/houses/15.jpg,108.00023966599838,0.3000047090026783,0.7500028340000426,108.75024887499603,0,
65,4,6,localizer_images/houses/40.jpg,108.75025054100115,0.3000502499999129,0.75001970899757,109.50027175000287,0,
66,4,7,localizer_images/houses/23.jpg,109.50027345799754,0.3000526670002728,0.7500117080053315,110.25028666599974,0,
67,4,8,localizer_images/houses/23.jpg,110.25028820800071,0.30004304199974285,0.750002458000381,111.00029279100272,1,0.5361728749994654
68,4,9,localizer_images/houses/27.jpg,111.00029429099959,0.3000527089971001,0.7500020840016077,111.75029804099904,0,
69,4,10,localizer_images/houses/34.jpg,111.75029962499684,0.30000904100597836,0.7500056249991758,112.50030679100018,0,
70,4,11,localizer_images/houses/12.jpg,112.50030837499799,0.30002370799775235,0.7500082080005086,113.25031825000042,0,
71,4,12,localizer_images/houses/18.jpg,113.25031979099731,0.30002612500538817,0.7500392920046579,114.00036104099854,0,
72,4,13,localizer_images/houses/29.jpg,114.00036258299951,0.3000137499984703,0.7500302499975078,114.75039495799865,0,
73,4,14,localizer_images/houses/4.jpg,114.75039658299647,0.300040333000652,0.7500331250048475,115.50043179099885,0,
74,4,15,localizer_images/houses/19.jpg,115.50043370800267,0.3000291249991278,0.750019416998839,116.25045458300156,0,
75,4,16,localizer_images/houses/8.jpg,116.25045612500253,0.3000367909990018,0.7500083749982878,117.00046608300181,0,
76,4,17,localizer_images/houses/22.jpg,117.00046758299868,0.3000384999977541,0.750033500000427,117.75050329099759,0,
77,4,18,localizer_images/houses/24.jpg,117.75050491600268,0.3000337089979439,0.7500159169940162,118.50052233300084,0,
78,4,19,localizer_images/houses/33.jpg,118.50052391600184,0.30005295899900375,0.7500429169958807,119.25056833300187,0,
79,4,20,localizer_images/houses/1.jpg,119.25056987500284,0.30002724999940256,0.7500474159969599,120.00061879099667,0,
80,5,1,localizer_images/faces/38.jpg,135.00002329100244,0.30001987499417737,0.7500406669933,135.75006670800212,0,
81,5,2,localizer_images/faces/31.jpg,135.7500684580009,0.30005816699849674,0.7500244580005528,136.50009441599832,0,
82,5,3,localizer_images/faces/2.jpg,136.5000959579993,0.30001254200033145,0.7500535419967491,137.25015095799608,0,
83,5,4,localizer_images/faces/10.jpg,137.2501530829977,0.30000775000371505,0.7500072920011007,138.0001619159957,0,
84,5,5,localizer_images/faces/19.jpg,138.00016341599985,0.30002404200058663,0.7500496249995194,138.75021529100195,0,
85,5,6,localizer_images/faces/40.jpg,138.75022304100276,0.3000335419928888,0.7500097089941846,139.5002349580027,0,
86,5,7,localizer_images/faces/23.jpg,139.50023658300051,0.30002087500179186,0.7500080829995568,140.25024612499692,0,
87,5,8,localizer_images/faces/19.jpg,140.2502476660011,0.3000497089960845,0.7500353750001523,141.00028516600287,0,
88,5,9,localizer_images/faces/29.jpg,141.0002867910007,0.30003991699777544,0.750038999998651,141.75032758300222,0,
89,5,10,localizer_images/faces/11.jpg,141.75032920800004,0.3000400000018999,0.750044499996875,142.5003757500017,0,
90,5,11,localizer_images/faces/9.jpg,142.50037729099859,0.3000376249983674,0.750011459000234,143.25039083299635,0,
91,5,12,localizer_images/faces/35.jpg,143.25039283299702,0.3000022920023184,0.750055667005654,144.00044999999955,0,
92,5,13,localizer_images/faces/17.jpg,144.00045158300054,0.3000343329986208,0.7500027919959393,144.75045712500287,0,
93,5,14,localizer_images/faces/21.jpg,144.75045866599976,0.3000224999996135,0.7500363750004908,145.50049654099712,0,
94,5,15,localizer_images/faces/24.jpg,145.5004981250022,0.30000479099544464,0.7500166249956237,146.250516291002,0,
95,5,16,localizer_images/faces/22.jpg,146.2505179159998,0.3000389169974369,0.7500153340006364,147.0005347499973,0,
96,5,17,localizer_images/faces/2.jpg,147.0005363329983,0.3000236669977312,0.7500204169991775,147.75055887499911,0,
97,5,18,localizer_images/faces/18.jpg,147.75056074999884,0.3000400000018999,0.7500296250000247,148.50059191599576,0,
98,5,19,localizer_images/faces/22.jpg,148.50059345799673,0.3000576250051381,0.7500504170020577,149.25064649999695,0,
99,5,20,localizer_images/faces/9.jpg,149.2506480000011,0.3000219159948756,0.7500429579959018,150.00069249999797,0,
100,6,1,localizer_images/houses/26.jpg,165.00002054099605,0.30000879200088093,0.7500222090020543,165.75004495799658,0,
101,6,2,localizer_images/houses/35.jpg,165.75004658300168,0.3000164999975823,0.7500636670010863,166.50011249999807,0,
102,6,3,localizer_images/houses/20.jpg,166.50011404100223,0.3000269589974778,0.7500586669993936,167.25017479099915,0,
103,6,4,localizer_images/houses/22.jpg,167.25017633300013,0.300060041998222,0.7500608330010436,168.0002469999963,0,
104,6,5,localizer_images/houses/25.jpg,168.00024845799635,0.30003025000041816,0.7500089580062195,168.7502592910023,0,
105,6,6,localizer_images/houses/23.jpg,168.75026091600012,0.30005487499875017,0.7500424169993494,169.50030491600046,0,
106,6,7,localizer_images/houses/20.jpg,169.50030645800143,0.3000613330004853,0.7500094579954748,170.2503179580017,0,
107,6,8,localizer_images/houses/36.jpg,170.25031954100268,0.3000550419965293,0.7500515840001754,171.00037262499973,0,
108,6,9,localizer_images/houses/28.jpg,171.00037475000136,0.3000451659972896,0.7500102909980342,171.75038674999814,0,
109,6,10,localizer_images/houses/33.jpg,171.75038833299914,0.30007791700336384,0.7500570830015931,172.50046375000238,0,
110,6,11,localizer_images/houses/7.jpg,172.5004653750002,0.30000283299887087,0.7500576250022277,173.25052458299615,0,
111,6,12,localizer_images/houses/26.jpg,173.2505260409962,0.30000658400240354,0.750057667006331,174.0005863749975,0,
112,6,13,localizer_images/houses/23.jpg,174.00058787500166,0.3000508330005687,0.75004374999844,174.750633165997,0,
113,6,14,localizer_images/houses/40.jpg,174.75063479100208,0.3000238749955315,0.7500417089977418,175.5006779999967,0,
114,6,15,localizer_images/houses/22.jpg,175.5006795829977,0.3000562080051168,0.7500497920045746,176.2507314159957,0,
115,6,16,localizer_images/houses/35.jpg,176.25073312500172,0.30002733299625106,0.750051999995776,177.0007867079985,0,
116,6,17,localizer_images/houses/1.jpg,177.00078829099948,0.30003545899671735,0.7500196670007426,177.75081616600073,0,
117,6,18,localizer_images/houses/2.jpg,177.7508179159995,0.3000099999990198,0.7500442500022473,178.50086437499704,0,
118,6,19,localizer_images/houses/27.jpg,178.50086595799803,0.3000385830018786,0.7500112920024549,179.2508794999958,0,
119,6,20,localizer_images/houses/6.jpg,179.25088149999647,0.3000157499991474,0.7500349580004695,180.00091812499886,0,
120,7,1,localizer_images/faces/35.jpg,195.0000197499976,0.300004374999844,0.7500315409997711,195.75005349999992,0,
121,7,2,localizer_images/faces/25.jpg,195.75005529099872,0.3000017919985112,0.7500620420032647,196.50011945799633,0,
122,7,3,localizer_images/faces/34.jpg,196.5001216660021,0.3000330840004608,0.7500263749971054,197.25014991599892,0,
123,7,4,localizer_images/faces/38.jpg,197.25015158300084,0.3000397919968236,0.7500480829985463,198.00020183299785,0,
124,7,5,localizer_images/faces/35.jpg,198.00020437499916,0.30005279099714244,0.7500254999977187,198.75023137500102,0,
125,7,6,localizer_images/faces/19.jpg,198.75023299999884,0.3000411660032114,0.7500460000010207,199.50029737500154,0,
126,7,7,localizer_images/faces/37.jpg,199.50029895800253,0.30005070799961686,0.7500597079997533,200.25036020799598,0,
127,7,8,localizer_images/faces/2.jpg,200.25036179099698,0.3000193340049009,0.7500516670042998,201.00041558299563,0,
128,7,9,localizer_images/faces/34.jpg,201.0004171249966,0.300031458005833,0.750029540999094,201.75044833299762,0,
129,7,10,localizer_images/faces/5.jpg,201.75044995800272,0.30002629199589137,0.7500072499969974,202.50045937499817,0,
130,7,11,localizer_images/faces/32.jpg,202.5004614999998,0.3000622499966994,0.750058124998759,203.25052116600273,0,
131,7,12,localizer_images/faces/39.jpg,203.25052270799642,0.3000352080052835,0.7500688750005793,204.00060425000265,0,
132,7,13,localizer_images/faces/21.jpg,204.0006143749997,0.3000022909982363,0.7500326660010614,204.7506550830003,0,
133,7,14,localizer_images/faces/25.jpg,204.7506566660013,0.30004470899439184,0.7500237499989453,205.50068216599902,0,
134,7,15,localizer_images/faces/24.jpg,205.5006836659959,0.3000145000041812,0.7500424590034527,206.25072791599814,0,
135,7,16,localizer_images/faces/30.jpg,206.25072966599691,0.30006662500090897,0.7500476249988424,207.0007787909999,0,
136,7,17,localizer_images/faces/27.jpg,207.0007803749977,0.3000509580015205,0.750020500003302,207.75081958300143,0,
137,7,18,localizer_images/faces/31.jpg,207.7508212909961,0.30006470900116256,0.7500446250051027,208.500867499999,0,
138,7,19,localizer_images/faces/13.jpg,208.50086912499683,0.3000578330029384,0.7500165000019479,209.25088733300072,0,
139,7,20,localizer_images/faces/27.jpg,209.2508888329976,0.30004154200287303,0.7500677920033922,210.00096749999648,0,
140,8,1,localizer_images/houses/7.jpg,225.00002233299892,0.30006637499900535,0.750033791999158,225.75005812499876,0,
141,8,2,localizer_images/houses/8.jpg,225.75005999999848,0.30003629100247053,0.750020500003302,226.5000832500009,0,
142,8,3,localizer_images/houses/33.jpg,226.500086,0.3000707909959601,0.7500486249991809,227.2501444160007,0,
143,8,4,localizer_images/houses/16.jpg,227.25015424999583,0.3000258330066572,0.7500173330045072,228.00017325000226,0,
144,8,5,localizer_images/houses/33.jpg,228.00017479099915,0.30002212499675807,0.7500127919993247,228.75018958299916,0,
145,8,6,localizer_images/houses/15.jpg,228.7501912910011,0.3000527920012246,0.7500502920011058,229.50024320800003,0,
146,8,7,localizer_images/houses/33.jpg,229.50024479100102,0.30003637499612523,0.7500611249997746,230.25030754099862,0,
147,8,8,localizer_images/houses/26.jpg,230.25030916599644,0.30006616700120503,0.7500123339996208,231.00032304100023,0,
148,8,9,localizer_images/houses/4.jpg,231.00032462499803,0.3000039580001612,0.7500446249978268,231.7503710000019,0,
149,8,10,localizer_images/houses/25.jpg,231.75037266599975,0.30007045900129015,0.7500582919965382,232.50043337499665,0,
150,8,11,localizer_images/houses/26.jpg,232.50043495799764,0.30007175000355346,0.7500068330045906,233.250443541001,0,
151,8,12,localizer_images/houses/35.jpg,233.2504451249988,0.30006870799843455,0.7500374160008505,234.0004839999965,0,
152,8,13,localizer_images/houses/26.jpg,234.00048599999718,0.3000677500021993,0.7500247080024565,234.75051274999714,0,
153,8,14,localizer_images/houses/27.jpg,234.75052249999862,0.30007162500260165,0.7500302080006804,235.50055433299713,0,
154,8,15,localizer_images/houses/29.jpg,235.50055591599812,0.3000571669981582,0.7500476249988424,236.25060524999571,0,
155,8,16,localizer_images/houses/8.jpg,236.25060674999986,0.30000237499916693,0.7500481250026496,237.00065633300255,0,
156,8,17,localizer_images/houses/16.jpg,237.00065791599627,0.30001758400612744,0.7500429170031566,237.75071087499964,0,
157,8,18,localizer_images/houses/16.jpg,237.75071254099748,0.3000038750033127,0.7500013340031728,238.50072516599903,1,0.4800692920034635
158,8,19,localizer_images/houses/33.jpg,238.5007266659959,0.30003108399978373,0.7500564170040889,239.2507849159956,0,
159,8,20,localizer_images/houses/8.jpg,239.2507869159963,0.30000700000528013,0.7500161250063684,240.00080570799764,0,
160,9,1,localizer_images/faces/38.jpg,255.00001920799696,0.30001816699950723,0.7500382500002161,255.75005908300227,0,
161,9,2,localizer_images/faces/3.jpg,255.75006074999692,0.30001291599910473,0.7500590830022702,256.5001219159967,0,
162,9,3,localizer_images/faces/9.jpg,256.50012387499737,0.30005662500479957,0.7500480000016978,257.2501734999969,0,
163,9,4,localizer_images/faces/15.jpg,257.25017504100106,0.3000455419969512,0.7500499589950778,258.00022704099683,0,
164,9,5,localizer_images/faces/21.jpg,258.0002286250019,0.30002445799618727,0.7500569580006413,258.7503207499976,0,
165,9,6,localizer_images/faces/34.jpg,258.7503225409964,0.3000695840019034,0.750038542006223,259.50036270800047,0,
166,9,7,localizer_images/faces/13.jpg,259.50036429100146,0.3000468339960207,0.7500282089968096,260.25039475000085,0,
167,9,8,localizer_images/faces/30.jpg,260.2503962499977,0.30000358300458174,0.750016541001969,261.00041429099656,0,
168,9,9,localizer_images/faces/24.jpg,261.00041591600166,0.30001987499417737,0.7500521670008311,261.7504699580022,0,
169,9,10,localizer_images/faces/4.jpg,261.75047162499686,0.30000483299954794,0.7500772909988882,262.5005503749999,0,
170,9,11,localizer_images/faces/7.jpg,262.5005522909996,0.30007437500171363,0.7500385000021197,263.25059241599956,0,
171,9,12,localizer_images/faces/26.jpg,263.25059391599643,0.300011875006021,0.7500680420052959,264.0006634579986,0,
172,9,13,localizer_images/faces/1.jpg,264.00067195799784,0.3000528749980731,0.750052625000535,264.750726708,0,
173,9,14,localizer_images/faces/5.jpg,264.7507285409956,0.30001925000397023,0.7500046670029406,265.5007356249989,0,
174,9,15,localizer_images/faces/36.jpg,265.5007376249996,0.30005720799817936,0.750047583002015,266.25078687499627,0,
175,9,16,localizer_images/faces/36.jpg,266.25078841600043,0.30000879200088093,0.7500023749962565,267.0007924160018,1,0.6175306669974816
176,9,17,localizer_images/faces/33.jpg,267.00079387499864,0.30005099999834783,0.7500066659995355,267.7508027079966,0,
177,9,18,localizer_images/faces/10.jpg,267.7508044580027,0.30006241699447855,0.750017124999431,268.50082366599963,0,
178,9,19,localizer_images/faces/7.jpg,268.50082529099745,0.3000374170005671,0.7500544590002391,269.25088129100186,0,
179,9,20,localizer_images/faces/12.jpg,269.25088287499966,0.30005474999779835,0.750040999999328,270.00092558300094,0,
180,10,1,localizer_images/houses/34.jpg,285.00002674999996,0.3000176659988938,0.7500187909972738,285.7500473330001,0,
181,10,2,localizer_images/houses/16.jpg,285.75004895799793,0.3000549580028746,0.7500450420047855,286.5000955409996,0,
182,10,3,localizer_images/houses/35.jpg,286.5000971249974,0.3000684159997036,0.7500693750043865,287.2501767079957,0,
183,10,4,localizer_images/houses/37.jpg,287.25017820799985,0.3000158329959959,0.7500828330012155,288.0002632079995,0,
184,10,5,localizer_images/houses/4.jpg,288.0002647910005,0.30006324999703793,0.7500725419959053,288.75034537499596,0,
185,10,6,localizer_images/houses/31.jpg,288.7503470829979,0.3000570830045035,0.7500393750015064,289.50038791599945,0,
186,10,7,localizer_images/houses/28.jpg,289.5003895409973,0.30000754199863877,0.7500370839989046,290.2504287499978,0,
187,10,8,localizer_images/houses/17.jpg,290.2504303329988,0.30005687499942724,0.7500205830001505,291.0004523749958,0,
188,10,9,localizer_images/houses/22.jpg,291.0004539579968,0.30007633300556336,0.7500389170018025,291.7504951660012,0,
189,10,10,localizer_images/houses/16.jpg,291.7504972500028,0.30003254099574406,0.7500241249945248,292.50053150000167,0,
190,10,11,localizer_images/houses/39.jpg,292.50053308300267,0.30001366699434584,0.7500245419942075,293.25055916600104,0,
191,10,12,localizer_images/houses/18.jpg,293.25056079099886,0.30002195900306106,0.7500283749977825,294.00059079100174,0,
192,10,13,localizer_images/houses/22.jpg,294.0005922909986,0.30008079200342763,0.7500162920041475,294.7506104159984,0,
193,10,14,localizer_images/houses/21.jpg,294.75061212499713,0.300058375003573,0.7500778329995228,295.5007001249978,0,
194,10,15,localizer_images/houses/33.jpg,295.500701666002,0.3000504999945406,0.7500126249942696,296.25071583299723,0,
195,10,16,localizer_images/houses/28.jpg,296.2507174159982,0.3000557499981369,0.7500546669980395,297.00077366599726,0,
196,10,17,localizer_images/houses/31.jpg,297.0007751660014,0.3000422089971835,0.7500044170010369,297.75078166599997,0,
197,10,18,localizer_images/houses/25.jpg,297.75078341599874,0.30005316700408,0.7500227089985856,298.50080824999895,0,
198,10,19,localizer_images/houses/18.jpg,298.50080983299995,0.30007491700234823,0.7500155000016093,299.2508274579959,0,
199,10,20,localizer_images/houses/5.jpg,299.2508289999969,0.30006616600439884,0.7500259160005953,300.00085645799845,0,
200,11,1,localizer_images/faces/21.jpg,315.00004425000225,0.3000842909968924,0.7500589579940424,315.7501068749989,0,
201,11,2,localizer_images/faces/22.jpg,315.7501130000019,0.30008629099756945,0.7500083749982878,316.5001248330009,0,
202,11,3,localizer_images/faces/15.jpg,316.5001265000028,0.3000340829967172,0.7500245409974013,317.25017229100195,0,
203,11,4,localizer_images/faces/34.jpg,317.2501819579993,0.30005779200291727,0.7500432919987361,318.00022704099683,0,
204,11,5,localizer_images/faces/15.jpg,318.0002285829978,0.3000117500050692,0.7500689170046826,318.7503002910016,0,
205,11,6,localizer_images/faces/25.jpg,318.7503020000004,0.30002679099561647,0.7500144579971675,319.5003179580017,0,
206,11,7,localizer_images/faces/11.jpg,319.5003195410027,0.3000585419940762,0.7500853749952512,320.25040637500206,0,
207,11,8,localizer_images/faces/10.jpg,320.25040791599895,0.30008179200376617,0.7500015420009731,321.00041091599996,1,0.4609612089989241
208,11,9,localizer_images/faces/39.jpg,321.0004125409978,0.30005283399805194,0.7500592500000494,321.75047345799976,0,
209,11,10,localizer_images/faces/37.jpg,321.75047520799853,0.30008591699879616,0.7500043330001063,322.50048116599646,0,
210,11,11,localizer_images/faces/35.jpg,322.50048275000154,0.3000757080008043,0.7500823329974082,323.2505665829958,0,
211,11,12,localizer_images/faces/19.jpg,323.2505681659968,0.300067542004399,0.7500380420024158,324.000607957998,0,
212,11,13,localizer_images/faces/33.jpg,324.00060945800215,0.30003887500060955,0.750044041997171,324.75065512499714,0,
213,11,14,localizer_images/faces/40.jpg,324.75065675000224,0.3000714159934432,0.7500200409995159,325.5006783330027,0,
214,11,15,localizer_images/faces/1.jpg,325.5006799999974,0.3000878329985426,0.750064250001742,326.250746083002,0,
215,11,16,localizer_images/faces/24.jpg,326.2507475829989,0.3000130829968839,0.750086583000666,327.00083558299957,0,
216,11,17,localizer_images/faces/1.jpg,327.00083708299644,0.3000109170025098,0.7500619170023128,327.75090058299975,0,
217,11,18,localizer_images/faces/39.jpg,327.75090241600265,0.3000119589996757,0.750002583998139,328.50090833300055,0,
218,11,19,localizer_images/faces/20.jpg,328.5009100000025,0.30004404099599924,0.750072208000347,329.25098425000033,0,
219,11,20,localizer_images/faces/5.jpg,329.2509857909972,0.300050709003699,0.7500830839999253,330.0010704160013,0,
220,12,1,localizer_images/houses/19.jpg,345.000044583001,0.3000043329957407,0.7500414999958593,345.75008787499974,0,
221,12,2,localizer_images/houses/18.jpg,345.75008966599853,0.3000673339993227,0.7500719590025255,346.50016366600175,0,
222,12,3,localizer_images/houses/20.jpg,346.5001652909996,0.3000767920020735,0.7500895420016604,347.25025708299654,0,
223,12,4,localizer_images/houses/36.jpg,347.25025874999847,0.3000605409979471,0.7500518750021001,348.0003122499984,0,
224,12,5,localizer_images/houses/4.jpg,348.00031391599623,0.3000229590033996,0.7500881250016391,348.750403541002,0,
225,12,6,localizer_images/houses/1.jpg,348.75040525000077,0.30000783300056355,0.7500288329974865,349.5004367079964,0,
226,12,7,localizer_images/houses/1.jpg,349.5004382499974,0.3000285000016447,0.7500020410006982,350.25044179100223,1,0.5744161660040845
227,12,8,localizer_images/houses/3.jpg,350.2504433329959,0.3000911250055651,0.7500712920009391,351.00052437499835,0,
228,12,9,localizer_images/houses/12.jpg,351.0005259160025,0.3000114999958896,0.7500426249971497,351.75057012499747,0,
229,12,10,localizer_images/houses/40.jpg,351.75057170799846,0.30001295800320804,0.7500428749990533,352.5006164160004,0,
230,12,11,localizer_images/houses/24.jpg,352.5006179999982,0.3000542080044397,0.7500208749988815,353.25064041600126,0,
231,12,12,localizer_images/houses/9.jpg,353.25064250000287,0.30000541599292774,0.7500349579931935,354.00067950000084,0,
232,12,13,localizer_images/houses/28.jpg,354.0006809999977,0.3000170410014107,0.7500688750005793,354.7507514579993,0,
233,12,14,localizer_images/houses/3.jpg,354.7507530410003,0.30003287499857834,0.7500583340006415,355.5008131249997,0,
234,12,15,localizer_images/houses/12.jpg,355.50081479099754,0.30004687500331784,0.7500494999985676,356.2508661249958,0,
235,12,16,localizer_images/houses/37.jpg,356.2508677079968,0.3000573750032345,0.7500374580049538,357.0009068329964,0,
236,12,17,localizer_images/houses/11.jpg,357.0009084159974,0.3000202920011361,0.7500067500004661,357.7509168749966,0,
237,12,18,localizer_images/houses/16.jpg,357.75091854100174,0.300023791998683,0.7500107919986476,358.50093087500136,0,
238,12,19,localizer_images/houses/35.jpg,358.5009324999992,0.30008758299663896,0.7500028750000638,359.25093699999707,0,
239,12,20,localizer_images/houses/33.jpg,359.25093854100123,0.30002254199644085,0.7500787919998402,360.0010189579989,0,
